"Time (s)","Acceleration x (m/s^2)","Acceleration y (m/s^2)","Acceleration z (m/s^2)","Absolute acceleration (m/s^2)"
-1.679916662E-3,-5.936804352E0,4.613406372E0,7.491321716E0,1.061362640E1
8.333083329E-3,-5.797743530E0,4.322710876E0,7.518714752E0,1.043219684E1
1.834145832E-2,-5.777834930E0,4.302203522E0,7.572902069E0,1.045185043E1
2.835345833E-2,-5.632636871E0,4.592300262E0,7.480095062E0,1.042917264E1
3.836645832E-2,-5.586832123E0,4.453538818E0,7.203021240E0,1.014545298E1
4.837845833E-2,-5.469925232E0,4.012256470E0,7.153174896E0,9.858305895E0
5.839145833E-2,-5.361400909E0,3.825894012E0,7.061864777E0,9.656708488E0
6.840345834E-2,-5.317691803E0,3.803740082E0,7.131470032E0,9.674923748E0
7.841545832E-2,-5.478906555E0,3.865860901E0,7.299121399E0,9.911633102E0
8.842845832E-2,-5.685177612E0,4.046235809E0,7.402556305E0,1.017305797E1
9.844045833E-2,-5.973777466E0,4.132007446E0,7.607480164E0,1.051823451E1
1.084524583E-1,-6.162534943E0,4.076173553E0,7.789651337E0,1.073641913E1
1.184654583E-1,-6.148613892E0,4.027674408E0,7.854765930E0,1.075755371E1
1.284774583E-1,-6.148164825E0,3.959416351E0,7.799530792E0,1.069156626E1
1.384904583E-1,-6.081403656E0,3.978576508E0,7.614665222E0,1.052595211E1
1.485024583E-1,-5.773943024E0,3.878135376E0,7.541467438E0,1.025924379E1
1.585144583E-1,-5.424569550E0,3.712130585E0,7.593110046E0,1.004296711E1
1.685274583E-1,-5.313201141E0,3.583098907E0,7.266938324E0,9.689019391E0
1.785394583E-1,-5.368136902E0,3.193459167E0,7.378007355E0,9.666957524E0
1.885524583E-1,-5.620362396E0,2.984194336E0,7.385641479E0,9.748927601E0
1.985644583E-1,-5.899980927E0,2.919828186E0,6.848708038E0,9.499472268E0
2.085764583E-1,-6.333030396E0,2.576591949E0,6.621480560E0,9.517883424E0
2.185894583E-1,-6.512507172E0,2.099683685E0,6.638844452E0,9.533922430E0
2.286014583E-1,-5.778283997E0,1.943708038E0,7.214397583E0,9.445321560E0
2.386144583E-1,-5.132826233E0,8.752299500E-1,7.733218689E0,9.322800217E0
2.486264583E-1,-5.604196014E0,2.936892700E-1,8.172704773E0,9.913948238E0
2.586384583E-1,-5.420378265E0,6.289920044E-1,7.708220673E0,9.444193847E0
2.686514583E-1,-4.947810974E0,6.442602539E-1,6.912475433E0,8.525152276E0
2.786634583E-1,-5.636678467E0,5.562432861E-1,6.956633606E0,8.970858479E0
2.886764583E-1,-5.836213531E0,3.652404785E-1,7.538623352E0,9.540735351E0
2.986884583E-1,-6.124963074E0,-5.149291992E-2,7.638016663E0,9.790665080E0
3.087014583E-1,-6.418951721E0,-6.143225098E-1,6.875352631E0,9.426070610E0
3.187134583E-1,-6.629264374E0,-1.042731628E0,6.237079926E0,9.161637484E0
3.287254583E-1,-6.469546509E0,-1.055305481E0,5.484445038E0,8.546802856E0
3.387384583E-1,-5.121300201E0,-5.936654663E-1,4.618196411E0,6.921552754E0
3.487504583E-1,-4.211342468E0,-1.082249451E-1,3.802692261E0,5.675172813E0
3.587634583E-1,-3.879482574E0,2.103126526E-1,3.881428528E0,5.491821544E0
3.687754583E-1,-4.667444000E0,3.132984924E-1,4.721631317E0,6.646577445E0
3.787874583E-1,-6.255192261E0,1.384620667E-1,5.456752625E0,8.301972727E0
3.888004583E-1,-9.251062317E0,-6.493496704E-1,6.352040863E0,1.124065088E1
3.988124583E-1,-1.378573242E1,-2.355651398E0,7.850424957E0,1.603822571E1
4.088244583E-1,-1.513278122E1,-2.712958374E0,8.050259399E0,1.735418932E1
4.188374583E-1,-7.853867798E0,5.084925842E-1,7.356751556E0,1.077328165E1
4.288494583E-1,-3.839515686E0,1.794917450E0,7.210056610E0,8.363523520E0
4.388624583E-1,-2.975961456E0,1.898502045E0,8.436905365E0,9.145601606E0
4.488744583E-1,-3.545227661E0,1.494192810E0,8.976084137E0,9.765824991E0
4.588864583E-1,-5.057233429E0,7.369175720E-1,8.326285400E0,9.769630803E0
4.688994583E-1,-6.061495056E0,4.447251892E-1,7.971822510E0,1.002444297E1
4.789114583E-1,-6.343358917E0,1.022972717E0,6.873556366E0,9.409062262E0
4.889244583E-1,-5.630391541E0,1.941462708E0,6.353388062E0,8.708394008E0
4.989364583E-1,-4.420008545E0,2.746488647E0,7.155120850E0,8.847340267E0
5.089484583E-1,-3.185825043E0,3.358715515E0,7.170688477E0,8.535175707E0
5.189614583E-1,-2.653082886E0,3.642076263E0,7.059020691E0,8.374565148E0
5.289734583E-1,-2.420765991E0,3.682791595E0,7.631879425E0,8.812981645E0
5.389864583E-1,-1.725312195E0,3.108286285E0,7.932005310E0,8.692229521E0
5.489984583E-1,-1.327439575E0,1.893113251E0,7.325915680E0,7.682123024E0
5.590104583E-1,-1.157542877E0,1.371298370E0,6.529421997E0,6.771537222E0
5.690234583E-1,-5.700146484E-1,1.442250824E0,6.072871399E0,6.267756470E0
5.790354583E-1,5.643264771E-2,1.462009735E0,6.072871399E0,6.246633024E0
5.890484583E-1,2.718347168E-1,1.422791290E0,6.394402771E0,6.556417922E0
5.990604583E-1,4.206253052E-1,1.246757355E0,6.467301178E0,6.599796518E0
6.090724583E-1,1.071322174E0,1.144669647E0,6.292315063E0,6.484691871E0
6.190854583E-1,9.975256348E-1,1.191671906E0,5.674400024E0,5.883362556E0
6.290974583E-1,1.411564636E0,1.586401062E0,4.311633911E0,4.806180400E0
6.391104583E-1,2.348316650E0,1.602717133E0,4.344715118E0,5.192286852E0
6.491224583E-1,3.122207336E0,6.953041077E-1,5.123695221E0,6.040188670E0
6.591344583E-1,3.489244080E0,-1.667532349E-1,4.459376678E0,5.664686333E0
6.691474583E-1,3.451223145E0,-7.140151978E-1,3.523822174E0,4.983781858E0
6.791594583E-1,3.647465057E0,-1.279090118E0,3.382965088E0,5.136586966E0
6.891724583E-1,3.583547974E0,-1.329684906E0,3.893852692E0,5.456369380E0
6.991844583E-1,3.737427979E0,-6.310876465E-1,7.619455261E0,8.510154992E0
7.091964583E-1,5.884862366E0,-2.093845825E0,1.742227020E0,6.484685836E0
7.192094583E-1,4.757406921E0,-2.430645447E0,2.539020081E0,5.915030082E0
7.292214583E-1,4.594246216E0,-3.120560760E0,5.026247864E0,7.490538388E0
7.392344583E-1,5.319488068E0,-3.582200775E0,6.267317047E0,8.967071911E0
7.492464583E-1,6.318360901E0,-3.649261322E0,5.981112213E0,9.434643394E0
7.592584583E-1,7.355404358E0,-3.901636505E0,5.404511261E0,9.926403309E0
7.692714583E-1,8.541238403E0,-4.305646362E0,5.517825623E0,1.104254245E1
7.792834583E-1,9.556127930E0,-4.268822937E0,6.193819885E0,1.216165429E1
7.892964583E-1,1.054482193E1,-3.850892029E0,7.393724670E0,1.344209074E1
7.993084583E-1,1.128188919E1,-3.615880737E0,8.033494263E0,1.431407165E1
8.093204583E-1,1.167048111E1,-3.903732147E0,7.756121063E0,1.454636271E1
8.193334583E-1,1.195638657E1,-4.384532318E0,7.460036774E0,1.475911420E1
8.293454583E-1,1.202314774E1,-4.748126221E0,7.229665833E0,1.481110570E1
8.393584583E-1,1.254002289E1,-4.764442291E0,6.722819824E0,1.500494554E1
8.493704583E-1,1.368169876E1,-4.314178619E0,6.440207520E0,1.572505297E1
8.593834583E-1,1.477771957E1,-3.660937042E0,6.506819000E0,1.655663460E1
8.693954583E-1,1.578632217E1,-3.067271576E0,6.559958496E0,1.736805050E1
8.794074583E-1,1.656335632E1,-2.421963501E0,6.728507996E0,1.804116126E1
8.894204583E-1,1.669178925E1,-1.822460175E0,6.525081024E0,1.801426856E1
8.994324583E-1,1.715851868E1,-1.287472687E0,5.790708160E0,1.815501722E1
9.094444583E-1,1.704191116E1,-1.443298645E0,5.296735382E0,1.790433614E1
9.194574583E-1,1.698128723E1,-1.256337433E0,4.767885132E0,1.768262504E1
9.294694583E-1,1.700643494E1,-6.947053528E-1,4.311334534E0,1.755816193E1
9.394824583E-1,1.706840607E1,-1.916015625E-1,3.612138519E0,1.744748525E1
9.494944583E-1,1.736493942E1,-2.140548706E-2,3.104095001E0,1.764020933E1
9.595074583E-1,1.728395782E1,-1.631607056E-1,2.671344910E0,1.748993720E1
9.695194583E-1,1.700314178E1,-1.459465027E-1,1.950593719E0,1.711528401E1
9.795314583E-1,1.674313248E1,1.353186035E-1,1.060843964E0,1.677725204E1
9.895444583E-1,1.640274033E1,5.285508728E-1,1.016386414E-1,1.641156868E1
9.995564583E-1,1.610815292E1,9.873468018E-1,-6.054908752E-1,1.614973881E1
1.009569458E0,1.614332977E1,1.339863739E0,-7.750881958E-1,1.621737009E1
1.019581083E0,1.623119705E1,1.430425415E0,-9.542655945E-1,1.632202492E1
1.029593083E0,1.605800720E1,1.044527893E0,-1.106349335E0,1.612993003E1
1.039606083E0,1.593436432E1,6.146218872E-1,-1.539398804E0,1.602034566E1
1.049618083E0,1.618150040E1,8.475375366E-1,-3.490142212E0,1.657529389E1
1.059631083E0,1.552122345E1,6.376739502E-2,-2.697390747E0,1.575399506E1
1.069643083E0,1.363679214E1,4.064048767E-1,-2.438728638E0,1.385910034E1
1.079655083E0,1.274015671E1,6.240522766E-1,-1.826651459E0,1.288556129E1
1.089668083E0,1.223690323E1,-2.293231201E-1,-1.713636475E0,1.235843597E1
1.099680083E0,1.171074738E1,-9.138496399E-1,-3.147953796E0,1.216085270E1
1.109693083E0,1.173873917E1,-1.150357819E0,-4.830305328E0,1.274571182E1
1.119705083E0,1.201461548E1,-1.984123993E0,-5.433850250E0,1.333470891E1
1.129717083E0,1.257355316E1,-1.912123718E0,-3.812871094E0,1.327736579E1
1.139730083E0,1.197494797E1,-7.414082336E-1,-2.563119965E0,1.226860420E1
1.149742083E0,1.125883713E1,-1.389111328E-1,-1.708996124E0,1.138865126E1
1.159755083E0,1.085557571E1,-5.179229736E-1,-1.603465576E0,1.098557555E1
1.169767083E0,1.104238724E1,-8.553213501E-1,-1.842817841E0,1.122772765E1
1.179779083E0,1.153995255E1,-7.482939148E-1,-1.699565735E0,1.168841188E1
1.189792083E0,1.195009964E1,-5.655239868E-1,-1.147663422E0,1.201839549E1
1.199804083E0,1.172182434E1,-1.383123779E-1,-5.281018066E-1,1.173452972E1
1.209817083E0,1.140134079E1,5.616320801E-1,4.337979126E-1,1.142340505E1
1.219829083E0,1.113369736E1,1.226549377E0,9.409432983E-1,1.124050775E1
1.229841083E0,1.140762772E1,1.672023010E0,1.788929901E0,1.166747193E1
1.239854083E0,1.093715607E1,1.304537201E0,2.319576416E0,1.125627091E1
1.249866083E0,9.523346100E0,8.348139954E-1,1.992356873E0,9.765271182E0
1.259879083E0,8.490942993E0,9.457333374E-1,1.991907806E0,8.772583494E0
1.269891083E0,8.427774353E0,1.269510040E0,2.223326569E0,8.808076823E0
1.279903083E0,8.031847687E0,1.536554718E0,2.269879761E0,8.486691452E0
1.289916083E0,7.215894470E0,1.428629150E0,2.358794861E0,7.724896598E0
1.299928083E0,6.630611572E0,1.407822418E0,2.178569641E0,7.119911479E0
1.309941083E0,6.676266632E0,1.359023895E0,1.788780212E0,7.044090909E0
1.319953083E0,6.263574829E0,1.239272919E0,1.563648376E0,6.573671976E0
1.329965083E0,5.252427521E0,9.208850098E-1,1.069376221E0,5.438712124E0
1.339978083E0,4.711302795E0,6.445596313E-1,3.857478333E-1,4.770810470E0
1.349990083E0,4.527934113E0,4.032614136E-1,2.233355713E-1,4.551338910E0
1.360003083E0,4.138593750E0,-5.643264771E-1,3.517684937E-1,4.191677907E0
1.370015083E0,3.910917206E0,-2.011517029E0,1.573827209E0,4.671017687E0
1.380027083E0,3.651506653E0,-1.431024170E-1,-4.808001709E-1,3.685803568E0
1.390040083E0,4.258494415E0,2.022743683E0,-1.195863190E0,4.863779956E0
1.400052083E0,4.664450226E0,1.980531464E0,-2.138303375E0,5.500176553E0
1.410065083E0,4.419709167E0,6.535409546E-1,-2.100432129E0,4.936877559E0
1.420077083E0,4.980892181E0,-1.107696533E-1,-1.219364319E0,5.129172076E0
1.430089083E0,6.313121796E0,-3.772155762E0,8.699908447E-1,7.405508083E0
1.440102083E0,5.484295349E0,-1.801803131E0,-2.647993469E-1,5.778763596E0
1.450114083E0,6.625971222E0,3.060086517E0,-1.182241516E0,7.393599876E0
1.460127083E0,7.717052307E0,4.078418884E0,-1.108444977E0,8.798582112E0
1.470139083E0,8.245603180E0,4.708458710E0,-1.740430756E0,9.653427082E0
1.480151083E0,9.692045288E0,4.268972626E0,-1.891616364E0,1.075816349E1
1.490164083E0,1.070229446E1,4.042194214E0,-1.901495819E0,1.159716031E1
1.500176083E0,1.077833633E1,4.715045013E0,-1.339115295E0,1.184049887E1
1.510189083E0,1.080108902E1,6.161487122E0,-1.069974976E0,1.248087713E1
1.520201083E0,1.203257812E1,7.710466003E0,-1.415306854E0,1.436096500E1
1.530213083E0,1.281559982E1,6.031257935E0,3.224295044E-1,1.416755561E1
1.540226083E0,1.070663544E1,5.067112885E0,7.216493225E-1,1.186711646E1
1.550238083E0,1.077010345E1,5.273383942E0,1.788780212E-1,1.199315238E1
1.560251083E0,1.116198853E1,4.672832794E0,7.074288940E-1,1.212129571E1
1.570263083E0,1.079809525E1,4.100123749E0,9.701325989E-1,1.159098930E1
1.580275083E0,1.048749115E1,3.412154388E0,8.779243469E-1,1.106349942E1
1.590288083E0,9.929451599E0,2.771935730E0,6.423143005E-1,1.032909504E1
1.600300083E0,9.357191620E0,2.643203430E0,1.481768646E0,9.835608660E0
1.610313083E0,8.520581360E0,3.136577454E0,1.080004120E0,9.143567888E0
1.620325083E0,8.418343964E0,2.541115723E0,-1.776505737E0,8.971162513E0
1.630337083E0,8.884923706E0,1.666634216E0,-3.835025024E-1,9.048017078E0
1.640350083E0,9.022038574E0,4.406985626E0,-6.033952332E-1,1.005896556E1
1.650362083E0,9.273665314E0,5.521717529E0,-1.066981201E0,1.084567571E1
1.660375083E0,9.308093719E0,4.421505432E0,-3.329825592E0,1.082949941E1
1.670387083E0,9.180708618E0,3.562292175E0,-1.478625183E0,9.957995215E0
1.680399083E0,8.584348755E0,4.896916809E0,-6.616241455E-2,9.883077215E0
1.690412083E0,9.043444061E0,3.278482361E0,-1.266815643E0,9.702430054E0
1.700424083E0,9.028026123E0,2.732717285E0,-2.121687927E0,9.668224196E0
1.710437083E0,9.457932129E0,2.426753540E0,-1.740879822E0,9.918279864E0
1.720449083E0,9.847422180E0,6.542893982E-1,-2.339185638E0,1.014256416E1
1.730461083E0,1.012105316E1,-6.224057007E-1,-3.637136536E0,1.077273726E1
1.740474083E0,1.038240967E1,-1.192570038E0,-3.549418945E0,1.103698458E1
1.750486083E0,1.009366013E1,-2.452050934E0,-3.517834625E0,1.096675380E1
1.760499083E0,9.357640686E0,-2.718796234E0,-4.477638702E0,1.072411024E1
1.770511083E0,9.228459320E0,-2.514022064E0,-4.326004028E0,1.049757492E1
1.780523083E0,9.686955872E0,-1.961520996E0,-3.197949829E0,1.038804899E1
1.790536083E0,1.069121750E1,-1.437311096E0,-2.286644897E0,1.102709117E1
1.800548083E0,1.128144012E1,-7.222480774E-1,-1.642983398E0,1.142330635E1
1.810561083E0,1.212029572E1,-4.245172119E-1,-1.044228516E0,1.217260023E1
1.820573083E0,1.373364075E1,-5.020559692E-1,-4.564009094E-1,1.375039091E1
1.830585083E0,1.457010132E1,-5.584886169E-1,4.421804810E-1,1.458750443E1
1.840598083E0,1.415965485E1,-1.191073151E0,1.045875092E0,1.424809936E1
1.850610083E0,1.306812469E1,-2.010319519E0,1.204994202E0,1.327664410E1
1.860623083E0,1.159428955E1,-2.589614868E0,1.181044006E0,1.193853091E1
1.870635083E0,1.058628571E1,-2.960094452E0,5.294490051E-1,1.100508612E1
1.880647083E0,1.091380463E1,-2.318378906E0,-9.755213928E-1,1.119989527E1
1.890660083E0,1.180190781E1,-2.163750458E0,-1.575473785E0,1.210160987E1
1.900672083E0,1.177466446E1,-3.259471893E0,-1.423988800E0,1.230018798E1
1.910685083E0,1.044767395E1,-3.973187714E0,-1.739981689E0,1.131227863E1
1.920697083E0,8.863069153E0,-4.191433868E0,-2.375410309E0,1.008784847E1
1.930709083E0,7.767347717E0,-4.783003693E0,-2.694396973E0,9.511497775E0
1.940722083E0,7.830067291E0,-3.994443512E0,-2.861000519E0,9.243963258E0
1.950734083E0,8.431366882E0,-3.238964539E0,-2.507884827E0,9.373810596E0
1.960747083E0,7.784561920E0,-3.213816833E0,-2.948119354E0,8.922972075E0
1.970759083E0,6.483018494E0,-3.117866364E0,-3.403023376E0,7.958089441E0
1.980771083E0,6.044580231E0,-2.802322540E0,-3.564238129E0,7.556040975E0
1.990784083E0,6.194119263E0,-2.607727203E0,-3.413202209E0,7.537725382E0
2.000796083E0,6.912475433E0,-3.100053406E0,-2.871179352E0,8.101624442E0
2.010809083E0,7.716154175E0,-3.880829773E0,-2.145488434E0,8.899606485E0
2.020821250E0,8.486452332E0,-4.265829163E0,-1.343605957E0,9.592833189E0
2.030833250E0,9.079219666E0,-4.647984467E0,-4.174818420E-1,1.020834367E1
2.040846250E0,9.977950745E0,-2.959795074E0,2.284249878E-1,1.041019048E1
2.050858250E0,9.991722107E0,-2.427651672E0,1.355730743E0,1.037140343E1
2.060871250E0,9.550739136E0,-2.511327667E0,1.890867920E0,1.005478822E1
2.070883250E0,8.716823273E0,-2.187101898E0,1.964814148E0,9.199288957E0
2.080895250E0,8.157735901E0,-2.009870453E0,1.933379517E0,8.621263864E0
2.090908250E0,7.402107239E0,-1.961221619E0,1.872905273E0,7.883232584E0
2.100920250E0,6.292614441E0,-1.899250488E0,1.159039764E0,6.674393013E0
2.110933250E0,5.216651917E0,-2.194586334E0,-3.665876770E-1,5.671336079E0
2.120945250E0,3.961661682E0,-3.002007294E0,-1.511856079E0,5.195432598E0
2.130957250E0,2.842738495E0,-4.655768280E0,-1.509011993E0,5.659899082E0
2.140970250E0,3.620970154E-1,-8.470435638E0,-1.266516266E0,8.572249273E0
2.150982250E0,1.681004333E-1,-1.109747269E1,2.766397247E0,1.143831769E1
2.160995250E0,2.024090881E0,-1.027598099E1,4.651726685E0,1.145998649E1
2.171007250E0,2.252366180E0,-9.263187103E0,2.226470032E0,9.789635209E0
2.181019250E0,2.583178253E0,-8.582851868E0,5.748046875E-1,8.981567597E0
2.191032250E0,3.433559875E0,-7.110363922E0,1.262624359E0,7.996300945E0
2.201044250E0,4.281396790E0,-5.683980103E0,2.294279022E0,7.476744245E0
2.211057250E0,5.217550049E0,-4.530628510E0,2.340383148E0,7.295671078E0
2.221069250E0,4.790787506E0,-4.146527252E0,2.374811554E0,6.766466072E0
2.231081250E0,3.553460541E0,-4.221970367E0,2.819836121E0,6.197063123E0
2.241094250E0,2.297422485E0,-4.287234650E0,3.123554535E0,5.780581627E0
2.251106250E0,1.513802032E0,-4.182901611E0,2.854114838E0,5.285284665E0
2.261119250E0,1.102158051E0,-3.880829773E0,2.230062561E0,4.609638936E0
2.271131250E0,1.624571686E0,-2.810405731E0,2.392923889E0,4.032827578E0
2.281143250E0,3.482508087E0,-1.581161957E0,2.283202057E0,4.454317831E0
2.291156250E0,4.459077301E0,-1.224902802E0,1.117875366E0,4.757457576E0
2.301168250E0,3.796255646E0,-1.472038879E0,-2.573149109E-1,4.079787538E0
2.311180250E0,2.571053467E0,-2.577190704E0,-3.977828064E0,5.392155781E0
2.321193250E0,7.167095947E-1,-4.092339935E0,-8.262068939E0,9.247848504E0
2.331205250E0,-2.838098145E-1,-5.599106598E0,-7.990832977E0,9.761350028E0
2.341218250E0,2.722837830E-1,-8.924142151E0,-4.366419983E0,9.938816582E0
2.351230250E0,6.661148071E-1,-1.438613388E1,-8.810678101E-1,1.442847315E1
2.361242250E0,9.380992126E-1,-2.074925171E1,1.127455444E0,2.080102479E1
2.371255250E0,6.288423157E-1,-2.711551300E1,3.415597229E0,2.733702238E1
2.381267250E0,-1.045426025E0,-3.155363388E1,4.396058350E0,3.187554008E1
2.391280250E0,-3.849395142E0,-3.311518661E1,4.551884308E0,3.364748250E1
2.401292250E0,-7.052434387E0,-3.146456909E1,4.175716553E0,3.251449750E1
2.411304250E0,-7.721093903E0,-2.518407944E1,1.910028076E-1,2.634178487E1
2.421317250E0,-5.848937073E0,-1.685869217E1,-1.006806335E0,1.787286282E1
2.431329250E0,-4.315525818E0,-1.205892334E1,-2.140548706E-2,1.280788247E1
2.441342250E0,-3.161725159E0,-9.202862549E0,4.782554626E-1,9.742582479E0
2.451354250E0,-4.321513367E-1,-5.587580566E0,1.102158051E0,5.711616560E0
2.461366250E0,5.020559692E-1,-3.596121826E0,1.325044556E0,3.865216095E0
2.471379250E0,5.685177612E-1,-3.986659698E0,9.120533752E-1,4.128984059E0
2.481391250E0,-3.725752258E-1,-5.414989471E0,-1.672023010E-1,5.430366459E0
2.491404250E0,-1.362466736E0,-5.406457214E0,-1.877994690E0,5.883277936E0
2.501416250E0,-1.254690857E0,-5.881419525E0,-3.728895721E0,7.076016399E0
2.511428250E0,-9.776170349E-1,-6.897805939E0,-4.353846130E0,8.215317277E0
2.521441250E0,-7.777825928E-1,-7.763455811E0,-3.201841736E0,8.433740711E0
2.531453250E0,-8.900491333E-1,-8.569828949E0,-1.294508057E0,8.712629154E0
2.541466250E0,-1.134790192E0,-9.312734070E0,6.310876465E-1,9.402820654E0
2.551478250E0,-1.316512299E0,-9.981842651E0,2.246678009E0,1.031590759E1
2.561490250E0,-1.403182068E0,-1.048659302E1,3.250939636E0,1.106825016E1
2.571503250E0,-1.286873932E0,-1.074869797E1,3.775897980E0,1.146507558E1
2.581515250E0,-9.678872681E-1,-1.072684341E1,3.732637939E0,1.139888422E1
2.591528250E0,-5.234614563E-1,-1.046937881E1,3.162174225E0,1.094902966E1
2.601540250E0,8.831634521E-3,-1.014904495E1,1.703906708E0,1.029108787E1
2.611552250E0,5.120851135E-1,-9.999805298E0,-6.551875305E-1,1.003432149E1
2.621565250E0,6.737489319E-1,-1.017494110E1,-2.756368103E0,1.056318745E1
2.631577250E0,4.240681458E-1,-1.043031006E1,-3.680995331E0,1.106891722E1
2.641590250E0,-1.914518738E-1,-1.076695999E1,-3.523672485E0,1.133050524E1
2.651602250E0,-6.683601379E-1,-1.088222031E1,-2.657423859E0,1.122191274E1
2.661614250E0,-5.694158936E-1,-1.001387604E1,-1.544039154E0,1.014820204E1
2.671627250E0,-3.567082214E-1,-9.323661346E0,-2.733316040E-1,9.334485086E0
2.681639250E0,-4.785548401E-1,-9.379495239E0,5.548960876E-1,9.408073945E0
2.691652250E0,-8.538244629E-1,-9.612859955E0,7.183561707E-1,9.677402974E0
2.701664250E0,-8.836125183E-1,-9.643246765E0,6.177653503E-1,9.703330010E0
2.711676250E0,-8.134085083E-1,-9.627230072E0,1.764830017E-1,9.663143304E0
2.721689250E0,-7.280859375E-1,-9.651928711E0,-3.960763550E-1,9.687451339E0
2.731701250E0,-7.014413452E-1,-9.676926727E0,-7.792794800E-1,9.733560877E0
2.741714250E0,-7.825726318E-1,-9.698332214E0,-8.916957092E-1,9.770628890E0
2.751726250E0,-8.271798706E-1,-9.634714508E0,-7.237449646E-1,9.697203564E0
2.761738250E0,-7.581733704E-1,-9.485175476E0,-3.417393494E-1,9.521563236E0
2.771751250E0,-6.352789307E-1,-9.378297729E0,8.382568359E-2,9.400163529E0
2.781763250E0,-4.894821167E-1,-9.384584656E0,3.430865479E-1,9.403601985E0
2.791776250E0,-3.341052246E-1,-9.452094269E0,3.161425781E-1,9.463279479E0
2.801788250E0,-1.977388000E-1,-9.571246490E0,5.867797852E-2,9.573468709E0
2.811800250E0,-8.966354370E-2,-9.693841553E0,-2.514770508E-1,9.697517430E0
2.821813250E0,2.245330811E-3,-9.773775330E0,-6.614744568E-1,9.796133813E0
2.831825250E0,8.981323242E-2,-9.857601013E0,-9.723779297E-1,9.905850947E0
2.841837250E0,1.386117554E-1,-9.900711365E0,-1.158291321E0,9.969199443E0
2.851850250E0,1.440005493E-1,-9.885892181E0,-1.200503540E0,9.959558681E0
2.861862250E0,1.339714050E-1,-9.859397278E0,-1.121168518E0,9.923844107E0
2.871875250E0,8.711883545E-2,-9.834998016E0,-9.616003418E-1,9.882279640E0
2.881887250E0,1.826202393E-2,-9.808203735E0,-7.864645386E-1,9.839701240E0
2.891899250E0,-7.244934082E-2,-9.791438599E0,-6.050418091E-1,9.810381966E0
2.901912250E0,-1.758842468E-1,-9.777517548E0,-4.162843323E-1,9.787955727E0
2.911924250E0,-2.567161560E-1,-9.748178558E0,-2.243833923E-1,9.754139444E0
2.921937250E0,-3.372486877E-1,-9.727671204E0,-5.643264771E-2,9.733679077E0
2.931949250E0,-4.330494690E-1,-9.699978790E0,6.331832886E-2,9.709847042E0
2.941961250E0,-5.420228577E-1,-9.643546143E0,9.984237671E-2,9.659282555E0
2.951974250E0,-6.637197876E-1,-9.549391937E0,9.145980835E-2,9.572866615E0
2.961986250E0,-7.878117371E-1,-9.355095978E0,1.164578247E-1,9.388931276E0
2.971999250E0,-9.086105347E-1,-9.039552155E0,1.775308228E-1,9.086836273E0
2.982011250E0,-9.997709656E-1,-8.617429962E0,2.249821472E-1,8.678148311E0
2.992023250E0,-1.085392914E0,-8.180189209E0,2.303709412E-1,8.255098064E0
3.002036250E0,-1.132395172E0,-7.776329041E0,1.216969299E-1,7.859288919E0
3.012048250E0,-1.113534393E0,-7.388934631E0,-2.421963501E-1,7.476294062E0
3.022064833E0,-1.010398865E0,-7.085515594E0,-8.740324402E-1,7.210365442E0
3.032076833E0,-8.327183533E-1,-6.954238586E0,-1.646725616E0,7.194898153E0
3.042088833E0,-5.881269836E-1,-6.915918274E0,-2.321522369E0,7.318830851E0
3.052101833E0,-2.975811768E-1,-7.027735748E0,-2.753374329E0,7.553720573E0
3.062113833E0,-5.628295898E-2,-7.188351746E0,-2.721490631E0,7.686486834E0
3.072126833E0,1.631607056E-2,-7.174131317E0,-2.192790070E0,7.501783432E0
3.082138833E0,7.035369873E-3,-7.029981079E0,-1.689686279E0,7.230195239E0
3.092150833E0,6.601272583E-2,-6.920109558E0,-1.417402496E0,7.064085490E0
3.102163833E0,2.038760376E-1,-6.874454498E0,-1.255738678E0,6.991177992E0
3.112175833E0,3.335064697E-1,-6.818321228E0,-1.188229065E0,6.929113886E0
3.122188833E0,4.162843323E-1,-6.734944611E0,-1.135987701E0,6.842750880E0
3.132200833E0,3.805087280E-1,-6.609505463E0,-9.846524048E-1,6.693271973E0
3.142212833E0,2.701881409E-1,-6.517446899E0,-1.045126648E0,6.606239886E0
3.152225833E0,2.240840149E-1,-6.584806824E0,-1.682650909E0,6.800088870E0
3.162237833E0,1.640588379E-1,-6.727011108E0,-2.428250427E0,7.153739854E0
3.172250833E0,7.679031372E-2,-6.701114960E0,-2.826272736E0,7.273146226E0
3.182262833E0,6.735992432E-3,-6.664141846E0,-3.029100952E0,7.320265329E0
3.192274833E0,-2.844085693E-3,-6.786886597E0,-3.383264465E0,7.583423779E0
3.202287833E0,5.388793945E-2,-7.145091705E0,-3.922742615E0,8.151266712E0
3.212299833E0,1.420545959E-1,-7.687713318E0,-4.561165009E0,8.940097416E0
3.222312833E0,2.359094238E-1,-8.452173615E0,-5.061275024E0,9.854511502E0
3.232324833E0,3.330574036E-1,-9.361233215E0,-5.723797302E0,1.097749835E1
3.242336833E0,4.037104797E-1,-1.005953110E1,-6.556665344E0,1.201444999E1
3.252349833E0,5.149291992E-1,-1.008363098E1,-6.293362885E0,1.189752841E1
3.262361833E0,5.426216125E-1,-9.495803375E0,-4.797074432E0,1.065254162E1
3.272373833E0,5.406756592E-1,-9.123976593E0,-3.020119629E0,9.626027302E0
3.282386833E0,7.228468323E-1,-9.398056641E0,-1.953737183E0,9.626165651E0
3.292398833E0,1.261277161E0,-1.026744873E1,-1.708996124E0,1.048484579E1
3.302411833E0,1.978136444E0,-1.142678787E1,-1.902543640E0,1.175177336E1
3.312423833E0,2.754122772E0,-1.312485672E1,-3.090473328E0,1.376219756E1
3.322436833E0,3.682641907E0,-1.574590622E1,-4.940476227E0,1.690868769E1
3.332448833E0,4.377047882E0,-1.915521652E1,-5.604794769E0,2.043268442E1
3.342460833E0,4.995561676E0,-2.277977921E1,-4.919968872E0,2.383443036E1
3.352473833E0,5.755681000E0,-2.689517120E1,-3.321592712E0,2.770399025E1
3.362485833E0,6.997498627E0,-3.103960281E1,-1.652713165E0,3.186147188E1
3.372497833E0,8.931027832E0,-3.402200089E1,-1.343156891E0,3.520033910E1
3.382510833E0,1.136541550E1,-3.481864426E1,-3.736978912E0,3.681678515E1
3.392522833E0,1.333097809E1,-3.255834457E1,-5.655838623E0,3.563354162E1
3.402535833E0,1.342887451E1,-2.787967392E1,-4.337679749E0,3.124782159E1
3.412547833E0,1.091949280E1,-2.246962418E1,-2.027084656E0,2.506448495E1
3.422559833E0,7.035818939E0,-1.882844604E1,-8.331674194E-1,2.011733821E1
3.432572833E0,3.729344788E0,-1.724444000E1,-7.056326294E-1,1.765719799E1
3.442584833E0,1.481768646E0,-1.671588913E1,-1.600621490E0,1.685759701E1
3.452597833E0,2.875520325E-1,-1.603435638E1,-3.064128113E0,1.632703745E1
3.462609833E0,-2.748284912E-1,-1.495120880E1,-3.934867401E0,1.546277326E1
3.472621833E0,-4.897814941E-1,-1.362227234E1,-3.924089813E0,1.418466321E1
3.482634833E0,-5.005590820E-1,-1.213601303E1,-3.453618164E0,1.262778089E1
3.492646833E0,-4.239184570E-1,-1.032762360E1,-3.167113953E0,1.081064877E1
3.502659833E0,-3.631448364E-1,-8.271798706E0,-3.133433990E0,8.852849066E0
3.512671833E0,-3.942800903E-1,-6.281986542E0,-2.993924103E0,6.970107118E0
3.522683833E0,-4.793032837E-1,-4.627177734E0,-2.647993469E0,5.352791313E0
3.532696833E0,-5.758525085E-1,-3.342549133E0,-2.265838165E0,4.079002747E0
3.542708833E0,-6.631210327E-1,-2.340532837E0,-2.085014191E0,3.203920667E0
3.552721833E0,-7.038363647E-1,-1.487905884E0,-1.757794647E0,2.408130306E0
3.562733833E0,-6.732998657E-1,-8.017327881E-1,-1.106499023E0,1.523301763E0
3.572745833E0,-5.646258545E-1,-2.571652222E-1,-2.896476746E-1,6.847131388E-1
3.582758833E0,-3.912863159E-1,2.945874023E-1,3.769161987E-1,6.180230898E-1
3.592770833E0,-2.157014465E-1,8.833131409E-1,7.911048889E-1,1.205245271E0
3.602783833E0,-3.772155762E-2,1.210532684E0,1.109792175E0,1.642696249E0
3.612795833E0,1.140628052E-1,1.201850739E0,1.331780548E0,1.797524673E0
3.622807833E0,1.884580994E-1,1.039288788E0,1.475032654E0,1.814210288E0
3.632820833E0,2.517764282E-1,9.072633362E-1,1.527872772E0,1.794690318E0
3.642832833E0,2.582130432E-1,8.879534912E-1,1.496288452E0,1.758981100E0
3.652845833E0,2.483335876E-1,8.794212341E-1,1.422192535E0,1.690468244E0
3.662857833E0,2.947370911E-1,8.481362915E-1,1.363664246E0,1.632723276E0
3.672869833E0,2.677931213E-1,7.530839539E-1,1.281335449E0,1.510188442E0
3.682882833E0,2.501298523E-1,6.860234070E-1,1.103355560E0,1.323097332E0
3.692894833E0,2.185455322E-1,6.734495544E-1,9.349557495E-1,1.172790990E0
3.702907833E0,1.802252197E-1,6.607260132E-1,7.933502197E-1,1.048067062E0
3.712919833E0,1.294807434E-1,6.834786987E-1,6.670129395E-1,9.637503079E-1
3.722931833E0,9.639953613E-2,6.611750793E-1,5.629792786E-1,8.737225098E-1
3.732944833E0,8.577163696E-2,6.093827820E-1,4.816983032E-1,7.814968996E-1
3.742956833E0,7.768844604E-2,5.587879944E-1,3.965254211E-1,6.895737284E-1
3.752969833E0,6.810836792E-2,5.188211060E-1,2.884501648E-1,5.975094872E-1
3.762981833E0,7.170089722E-2,4.851411438E-1,1.672023010E-1,5.181308305E-1
3.772993833E0,8.158035278E-2,4.683760071E-1,6.436614990E-2,4.797649833E-1
3.783006833E0,7.903564453E-2,4.791535950E-1,-4.296066284E-2,4.875247883E-1
3.793018833E0,8.577163696E-2,4.553530884E-1,-1.384620667E-1,4.836061959E-1
3.803030833E0,8.532257080E-2,4.134402466E-1,-1.971400452E-1,4.659152026E-1
3.813043833E0,8.622070312E-2,3.799099731E-1,-2.609074402E-1,4.688691605E-1
3.823055833E0,4.266128540E-2,3.384461975E-1,-2.616558838E-1,4.299181497E-1
3.833068833E0,2.933898926E-2,2.939886475E-1,-1.457968140E-1,3.294644322E-1
3.843080833E0,8.337661743E-2,2.977308655E-1,-6.721023560E-2,3.164056642E-1
3.853092833E0,1.290316772E-1,-3.442840576E-3,2.588117981E-1,2.892137163E-1
3.863105833E0,-9.789642334E-2,-1.190324707E0,2.100132751E-1,1.212667388E0
3.873117833E0,-3.393443298E-1,-2.763403473E0,-1.549727325E0,3.186409910E0
3.883130833E0,-6.426136780E-1,-3.644620972E0,-4.260290680E0,5.643251815E0
3.893142833E0,-1.505868530E-1,-5.970783691E0,-8.640182648E0,1.050360369E1
3.903154833E0,8.114625549E-1,-8.359665985E0,-1.111768066E1,1.393360363E1
3.913167833E0,1.708846436E0,-1.002525238E1,-1.006731491E1,1.431001995E1
3.923179833E0,1.866768036E0,-1.257325378E1,-7.458539886E0,1.473775257E1
3.933192833E0,3.067870331E0,-1.924727509E1,-8.423283691E0,2.123254895E1
3.943204833E0,-1.360520782E0,-3.559717529E1,9.377698975E0,3.683681777E1
3.953216833E0,3.412603455E0,-4.886139221E1,-2.889740753E0,4.906558991E1
3.963229833E0,4.670288086E0,-5.580814636E1,-6.575226746E0,5.638789230E1
3.973241833E0,4.125421143E-1,-5.278203918E1,4.170926514E0,5.294818674E1
3.983254833E0,-3.197351074E-1,-3.663092560E1,-1.407073975E-2,3.663232369E1
3.993266833E0,2.710413666E0,-2.378044830E1,-5.117557983E0,2.447540528E1
4.003278833E0,4.411925354E0,-1.906091263E1,-3.895050201E0,1.994880677E1
4.013291833E0,5.353766785E0,-2.107886627E1,-2.904110870E0,2.194117777E1
4.023299875E0,3.720662842E0,-2.379496811E1,-3.096610565E0,2.428235648E1
4.033312875E0,2.762954407E0,-2.202953934E1,-2.479144592E0,2.234011366E1
4.043324875E0,2.022444305E0,-1.977597565E1,-1.600920868E0,1.994348118E1
4.053336875E0,6.644682312E-1,-1.814975739E1,-9.267228699E-1,1.818554444E1
4.063349875E0,1.219963074E-1,-1.664478699E1,-6.376739502E-1,1.665744413E1
4.073361875E0,5.803431702E-1,-1.485391113E1,-9.473799133E-1,1.489540207E1
4.083374875E0,1.118923187E0,-1.269375320E1,-1.563049622E0,1.283847669E1
4.093386875E0,1.223106537E0,-1.033720367E1,-1.966760101E0,1.059348454E1
4.103398875E0,1.411414948E0,-8.041577454E0,-1.825453949E0,8.366082848E0
4.113411875E0,1.297202454E0,-6.108197937E0,-2.009271698E0,6.559724766E0
4.123423875E0,7.664062500E-1,-4.621040497E0,-2.305805054E0,5.220931982E0
4.133436875E0,4.117936707E-1,-3.571123810E0,-1.865869904E0,4.050181451E0
4.143448875E0,2.902464294E-1,-2.785856781E0,-1.168320465E0,3.034833390E0
4.153460875E0,2.616558838E-1,-2.112556915E0,-6.764433289E-1,2.233592644E0
4.163473875E0,2.438429260E-1,-1.704655151E0,-1.830693054E-1,1.731710983E0
4.173485875E0,2.875520325E-1,-1.523980865E0,4.284091187E-1,1.608955631E0
4.183498875E0,3.056643677E-1,-1.375639343E0,1.209484863E0,1.857058950E0
4.193510875E0,1.992356873E-1,-1.204545135E0,1.776805115E0,2.155843282E0
4.203522875E0,9.086105347E-2,-1.060544586E0,2.060165863E0,2.318899294E0
4.213535875E0,-4.834945679E-2,-9.617500305E-1,2.122885437E0,2.331082017E0
4.223547875E0,-2.251318359E-1,-9.217831421E-1,1.994901581E0,2.209072389E0
4.233560875E0,-4.281097412E-1,-9.406439209E-1,1.780547333E0,2.058746643E0
4.243572875E0,-6.559359741E-1,-1.004860382E0,1.498982849E0,1.920142175E0
4.253584875E0,-8.937913513E-1,-1.011895752E0,9.678872681E-1,1.661204911E0
4.263597875E0,-1.183439026E0,-1.025068359E0,-1.345701599E-1,1.571433167E0
4.273609875E0,-1.546583862E0,-1.602717133E0,-1.524729309E0,2.699152333E0
4.283621875E0,-1.654210052E0,-2.751877441E0,-2.300565948E0,3.949916965E0
4.293634875E0,-1.598226471E0,-4.008514252E0,-1.937570801E0,4.730401142E0
4.303646875E0,-1.575623474E0,-5.149741058E0,-5.679190063E-1,5.415252007E0
4.313659875E0,-1.624272308E0,-6.149062958E0,9.377998352E-1,6.428740493E0
4.323671875E0,-1.664538574E0,-7.226222992E0,2.058219910E0,7.695794734E0
4.333683875E0,-1.711989899E0,-8.661438446E0,2.673889618E0,9.225026344E0
4.343696875E0,-1.770667877E0,-1.048868866E1,2.907553711E0,1.102731713E1
4.353708875E0,-1.792672119E0,-1.254645950E1,2.951262817E0,1.301296552E1
4.363721875E0,-1.744921417E0,-1.446966019E1,2.826123047E0,1.484596875E1
4.373733875E0,-1.714833984E0,-1.596654739E1,2.216590576E0,1.621063124E1
4.383745875E0,-1.781295776E0,-1.700942871E1,9.915380859E-1,1.713116539E1
4.393758875E0,-2.085612946E0,-1.724219467E1,1.511856079E-1,1.736853234E1
4.403770875E0,-2.483635254E0,-1.651036652E1,-1.916015625E-1,1.669722605E1
4.413783875E0,-2.734812927E0,-1.495734604E1,-3.246748352E-1,1.520877431E1
4.423795875E0,-2.953957214E0,-1.323622513E1,-5.381309509E-1,1.357251280E1
4.433807875E0,-3.072510681E0,-1.189725952E1,-8.041278076E-1,1.231388353E1
4.443820875E0,-3.144211578E0,-1.103430405E1,-9.415420532E-1,1.151209945E1
4.453832875E0,-3.243904266E0,-1.054691757E1,-9.102571106E-1,1.107198958E1
4.463845875E0,-3.384911041E0,-1.037941589E1,-5.743556213E-1,1.093251030E1
4.473857875E0,-3.596570892E0,-1.048180298E1,3.727249146E-2,1.108173746E1
4.483869875E0,-3.931424561E0,-1.070528824E1,5.583389282E-1,1.141801374E1
4.493882875E0,-4.304299164E0,-1.088671097E1,7.970924377E-1,1.173383242E1
4.503894875E0,-4.595443726E0,-1.077743820E1,6.990463257E-1,1.173711817E1
4.513907875E0,-4.826712799E0,-1.037582336E1,2.435435486E-1,1.144614260E1
4.523919875E0,-5.038073273E0,-9.862840118E0,-4.743635559E-1,1.108525229E1
4.533931875E0,-5.204527130E0,-9.355245667E0,-1.098116455E0,1.076167198E1
4.543944875E0,-5.213059387E0,-8.821455688E0,-1.491947479E0,1.035470791E1
4.553956875E0,-5.057083740E0,-8.268655243E0,-1.654659119E0,9.832733714E0
4.563969875E0,-4.730462952E0,-7.750582581E0,-1.524280243E0,9.207184170E0
4.573981875E0,-4.145030365E0,-7.347321167E0,-1.269659729E0,8.530910906E0
4.583993875E0,-3.059787140E0,-7.232958984E0,-1.143472137E0,7.936341824E0
4.594006875E0,-2.190844116E0,-7.789950714E0,7.803273010E-1,8.129701149E0
4.604018875E0,-1.838925934E0,-8.298742676E0,2.141446838E0,8.765647332E0
4.614031875E0,-1.545835419E0,-8.619675293E0,2.990780640E0,9.253819651E0
4.624043875E0,-1.184337158E0,-8.848399658E0,3.519331512E0,9.595964012E0
4.634055875E0,-7.855664063E-1,-9.020841064E0,3.601360931E0,9.744869863E0
4.644068875E0,-3.628454590E-1,-9.227860565E0,3.160377960E0,9.760791786E0
4.654080875E0,-4.670288086E-2,-9.568402405E0,2.198029175E0,9.817730796E0
4.664092875E0,-3.876937866E-2,-1.014620087E1,9.858499146E-1,1.019405685E1
4.674105875E0,-7.729925537E-1,-1.099673218E1,-1.047821045E-2,1.102387164E1
4.684117875E0,-2.159858551E0,-1.169832321E1,-5.803431702E-1,1.191018695E1
4.694130875E0,-3.176394653E0,-1.193258606E1,-9.264234924E-1,1.238282494E1
4.704142875E0,-3.702101440E0,-1.195264435E1,-1.135987701E0,1.256430380E1
4.714154875E0,-4.009562073E0,-1.179951279E1,-1.091230774E0,1.250983112E1
4.724167875E0,-4.152215424E0,-1.137858810E1,-8.039781189E-1,1.213917382E1
4.734179875E0,-4.105961609E0,-1.066801575E1,-3.483256531E-1,1.143620617E1
4.744192875E0,-3.954626312E0,-9.830657043E0,7.529342651E-2,1.059653511E1
4.754204875E0,-3.749103699E0,-9.085356903E0,3.495231628E-1,9.834716826E0
4.764216875E0,-3.570525055E0,-8.521928558E0,4.257147217E-1,9.249494502E0
4.774229875E0,-3.456462250E0,-8.185727692E0,4.306544495E-1,8.895995300E0
4.784241875E0,-3.404370575E0,-8.023465118E0,3.469784546E-1,8.722736128E0
4.794254875E0,-3.413202209E0,-7.986791382E0,2.742297363E-1,8.689878471E0
4.804266875E0,-3.463347931E0,-8.111033020E0,3.095562744E-1,8.824934030E0
4.814278875E0,-3.547323303E0,-8.391100616E0,4.824467468E-1,9.122873836E0
4.824291875E0,-3.600013733E0,-8.734935608E0,6.586303711E-1,9.470638464E0
4.834303875E0,-3.538641357E0,-9.043144684E0,7.714956665E-1,9.741440037E0
4.844316875E0,-3.244203644E0,-9.286688232E0,7.653584290E-1,9.866772985E0
4.854328875E0,-2.663860474E0,-9.444160767E0,6.186634827E-1,9.832144716E0
4.864340875E0,-2.121987305E0,-9.545649719E0,4.058061218E-1,9.787080121E0
4.874353875E0,-1.827100525E0,-9.706714783E0,1.902543640E-1,9.879008297E0
4.884365875E0,-1.654210052E0,-9.923464050E0,-3.592529297E-3,1.006039575E1
4.894378875E0,-1.501228180E0,-1.010294083E1,-3.996688843E-2,1.021394619E1
4.904390875E0,-1.364412689E0,-1.020951920E1,8.277786255E-2,1.030061922E1
4.914402875E0,-1.204994202E0,-1.021760239E1,3.143463135E-1,1.029321248E1
4.924415875E0,-1.045126648E0,-1.008393036E1,5.361849976E-1,1.015211483E1
4.934427875E0,-9.457333374E-1,-9.893526306E0,6.382727051E-1,9.959099676E0
4.944439875E0,-9.720785522E-1,-9.733509064E0,5.969586182E-1,9.800127295E0
4.954452875E0,-1.161883850E0,-9.643695831E0,4.689747620E-1,9.724750932E0
4.964464875E0,-1.494192810E0,-9.620943146E0,2.812651062E-1,9.740342357E0
4.974477875E0,-1.820963287E0,-9.565109253E0,6.840774536E-2,9.737140337E0
4.984489875E0,-2.075134735E0,-9.475745087E0,-1.312770081E-1,9.701193884E0
4.994501875E0,-2.296823730E0,-9.377399597E0,-2.514770508E-1,9.657860175E0
5.004514875E0,-2.517464905E0,-9.303752747E0,-2.936892700E-1,9.642805510E0
5.014526875E0,-2.722089386E0,-9.269623718E0,-2.498304749E-1,9.664269748E0
5.024539333E0,-2.851420441E0,-9.258397064E0,-1.989363098E-1,9.689586698E0
5.034551333E0,-2.911894684E0,-9.256301422E0,-1.559756470E-1,9.704770738E0
5.044563333E0,-2.891686707E0,-9.250463562E0,-1.339714050E-1,9.692826031E0
5.054576333E0,-2.830913086E0,-9.289981384E0,-1.372645569E-1,9.712706347E0
5.064588333E0,-2.747686157E0,-9.375753021E0,-1.683998108E-1,9.771534293E0
5.074601333E0,-2.602488098E0,-9.489516449E0,-1.930984497E-1,9.841806427E0
5.084613333E0,-2.342927856E0,-9.582323456E0,-1.956431580E-1,9.866534853E0
5.094625333E0,-2.040556641E0,-9.666897583E0,-1.172062683E-1,9.880613219E0
5.104638333E0,-1.741777954E0,-9.713600464E0,4.640350342E-3,9.868528054E0
5.114650333E0,-1.500030670E0,-9.744286652E0,1.573228455E-1,9.860322755E0
5.124663333E0,-1.309925995E0,-9.764344940E0,3.005749512E-1,9.856403174E0
5.134675333E0,-1.197210388E0,-9.796228638E0,4.107458496E-1,9.877657637E0
5.144687333E0,-1.182690582E0,-9.829160156E0,4.408332825E-1,9.909867828E0
5.154700333E0,-1.238823853E0,-9.832153931E0,3.617976379E-1,9.916492978E0
5.164712333E0,-1.346000977E0,-9.793534241E0,2.628533936E-1,9.889091134E0
5.174725333E0,-1.494941254E0,-9.697733459E0,1.514849854E-1,9.813451549E0
5.184737333E0,-1.710642700E0,-9.558672638E0,5.763015747E-2,9.710707610E0
5.194749333E0,-2.013612671E0,-9.427096252E0,-2.080673218E-2,9.639772438E0
5.204762333E0,-2.311193848E0,-9.353000336E0,-9.071136475E-2,9.634752764E0
5.214774333E0,-2.567910004E0,-9.328750763E0,-1.604663086E-1,9.677060608E0
5.224787333E0,-2.741997986E0,-9.339678040E0,-2.004331970E-1,9.735928939E0
5.234799333E0,-2.854114838E0,-9.355844421E0,-2.439926147E-1,9.784545403E0
5.244811333E0,-2.883902893E0,-9.387728119E0,-2.269281006E-1,9.823330978E0
5.254824333E0,-2.857557678E0,-9.406738586E0,-1.920506287E-1,9.833069214E0
5.264836333E0,-2.770588531E0,-9.414372711E0,-1.534309387E-1,9.814790645E0
5.274848333E0,-2.634072418E0,-9.437424774E0,-1.197509766E-1,9.798860351E0
5.284861333E0,-2.459535370E0,-9.491761780E0,-8.681945801E-2,9.805630706E0
5.294873333E0,-2.291285248E0,-9.530830536E0,-8.442443848E-2,9.802746874E0
5.304886333E0,-2.136806488E0,-9.547296295E0,-7.020401001E-2,9.783748623E0
5.314898333E0,-2.007176056E0,-9.556876373E0,-5.703140259E-2,9.765546289E0
5.324910333E0,-1.904938660E0,-9.581125946E0,-1.676513672E-2,9.768676817E0
5.334923333E0,-1.822609863E0,-9.590107269E0,2.424957275E-2,9.761795541E0
5.344935333E0,-1.758094025E0,-9.618248749E0,7.559280396E-2,9.777899461E0
5.354948333E0,-1.716480560E0,-9.640552368E0,1.231938171E-1,9.792942979E0
5.364960333E0,-1.714983673E0,-9.651180267E0,1.438508606E-1,9.803425045E0
5.374972333E0,-1.730551300E0,-9.637109528E0,1.366658020E-1,9.792209423E0
5.384985333E0,-1.772613831E0,-9.595046997E0,1.202000427E-1,9.758152218E0
5.394997333E0,-1.831441498E0,-9.565558319E0,9.430389404E-2,9.739762684E0
5.405010333E0,-1.912273407E0,-9.540111237E0,4.894821167E-2,9.730000407E0
5.415022333E0,-2.005230103E0,-9.521699524E0,-1.616638184E-2,9.730568891E0
5.425034333E0,-2.098336487E0,-9.535919952E0,-7.484436035E-2,9.764342632E0
5.435047333E0,-2.169288940E0,-9.557026062E0,-1.408570862E-1,9.801142912E0
5.445059333E0,-2.217788086E0,-9.592951355E0,-1.935475159E-1,9.847881007E0
5.455072333E0,-2.251468048E0,-9.615853729E0,-2.189945984E-1,9.878345507E0
5.465084333E0,-2.265838165E0,-9.602830811E0,-2.451901245E-1,9.869574477E0
5.475096333E0,-2.274520111E0,-9.571845245E0,-2.359094238E-1,9.841205027E0
5.485109333E0,-2.256258087E0,-9.559121704E0,-1.830693054E-1,9.823493405E0
5.495121333E0,-2.226320343E0,-9.533375244E0,-1.363664246E-1,9.790829465E0
5.505133333E0,-2.172582092E0,-9.518556061E0,-1.037342834E-1,9.763902049E0
5.515146333E0,-2.130818939E0,-9.521699524E0,-9.580078125E-2,9.757680512E0
5.525158333E0,-2.102228394E0,-9.558223572E0,-7.080276489E-2,9.786930831E0
5.535171333E0,-2.076931000E0,-9.576036530E0,-3.936813354E-2,9.798758485E0
5.545183333E0,-2.042951660E0,-9.560169525E0,-1.197509766E-3,9.776016278E0
5.555195333E0,-2.025138702E0,-9.547445984E0,1.631607056E-2,9.759875911E0
5.565208333E0,-2.027234344E0,-9.540709991E0,2.619552612E-2,9.753743509E0
5.575220333E0,-2.015259247E0,-9.559421082E0,3.502716064E-2,9.769597133E0
5.585233333E0,-2.016157379E0,-9.574988708E0,3.008743286E-2,9.784998958E0
5.595245333E0,-2.030228119E0,-9.582473145E0,3.143463135E-3,9.795183901E0
5.605257333E0,-2.065704346E0,-9.574689331E0,-3.323089600E-2,9.795045407E0
5.615270333E0,-2.087558899E0,-9.539961548E0,-4.191284180E-2,9.765783388E0
5.625282333E0,-2.085762634E0,-9.509574738E0,-5.703140259E-2,9.735793241E0
5.635295333E0,-2.096989288E0,-9.505084076E0,-5.987548828E-2,9.733836471E0
5.645307333E0,-2.093995514E0,-9.530231781E0,-5.568420410E-2,9.757726976E0
5.655319333E0,-2.107617188E0,-9.564211121E0,-4.700225830E-2,9.793793636E0
5.665332333E0,-2.126477966E0,-9.601633301E0,-4.670288086E-2,9.834401443E0
5.675344333E0,-2.149080963E0,-9.634415131E0,-4.206253052E-2,9.871285284E0
5.685357333E0,-2.176324310E0,-9.653126221E0,-4.655319214E-2,9.895524268E0
5.695369333E0,-2.185455322E0,-9.641749878E0,-5.523513794E-2,9.886486059E0
5.705381333E0,-2.185006256E0,-9.593999176E0,-4.969665527E-2,9.839793813E0
5.715394333E0,-2.169139252E0,-9.549990692E0,-5.269042969E-2,9.793378559E0
5.725406333E0,-2.169588318E0,-9.529932404E0,-4.430786133E-2,9.773877852E0
5.735418333E0,-2.144141235E0,-9.531878357E0,-3.832031250E-2,9.770133832E0
5.745431333E0,-2.143243103E0,-9.537865906E0,-3.188369751E-2,9.775755398E0
5.755443333E0,-2.128872986E0,-9.567953339E0,-1.556762695E-2,9.801942340E0
5.765456333E0,-2.103425903E0,-9.603279877E0,5.987548828E-3,9.830942008E0
5.775468333E0,-2.068548431E0,-9.617500305E0,8.232879639E-3,9.837442377E0
5.785480333E0,-2.029779053E0,-9.618248749E0,1.781295776E-2,9.830108305E0
5.795493333E0,-2.005828857E0,-9.616003418E0,3.472778320E-2,9.823038082E0
5.805505333E0,-1.983525238E0,-9.605076141E0,3.308120728E-2,9.807800692E0
5.815518333E0,-1.966460724E0,-9.581874390E0,4.745132446E-2,9.781693934E0
5.825530333E0,-1.964963837E0,-9.562863922E0,4.924758911E-2,9.762780065E0
5.835542333E0,-1.979483643E0,-9.552385712E0,3.442840576E-2,9.755388951E0
5.845555333E0,-2.001787262E0,-9.557624817E0,5.119354248E-2,9.765140304E0
5.855567333E0,-2.032473450E0,-9.567354584E0,1.035845947E-1,9.781408478E0
5.865580333E0,-2.068249054E0,-9.582473145E0,1.416055298E-1,9.804157171E0
5.875592333E0,-2.146835632E0,-9.593849487E0,1.603166199E-1,9.832423538E0
5.885604333E0,-2.269580383E0,-9.638606415E0,8.098159790E-2,9.902539409E0
5.895617333E0,-2.439327393E0,-9.668244781E0,-7.664062500E-2,9.971516889E0
5.905629333E0,-2.604733429E0,-9.675579529E0,-3.246748352E-1,1.002531242E1
5.915642333E0,-2.733465729E0,-9.606722717E0,-5.769003296E-1,1.000468741E1
5.925654333E0,-2.824326782E0,-9.539662170E0,-7.668553162E-1,9.978479001E0
5.935666333E0,-2.860102386E0,-9.494007111E0,-8.161029053E-1,9.948988925E0
5.945679333E0,-2.839145966E0,-9.482481079E0,-6.837780762E-1,9.921983153E0
5.955691333E0,-2.787503357E0,-9.458081818E0,-4.429289246E-1,9.870241773E0
5.965704333E0,-2.687810669E0,-9.372310181E0,-1.978884888E-1,9.752111780E0
5.975716333E0,-2.536325684E0,-9.277706909E0,-4.490661621E-3,9.618150219E0
5.985728333E0,-2.354304199E0,-9.231004028E0,1.137634277E-1,9.527178268E0
5.995741333E0,-2.176773376E0,-9.255702667E0,1.404080200E-1,9.509263305E0
6.005753333E0,-2.020049286E0,-9.326355743E0,1.231938171E-1,9.543410674E0
6.015765333E0,-1.894909515E0,-9.403445435E0,8.681945801E-2,9.592862228E0
6.025778833E0,-1.787133636E0,-9.485175476E0,4.805007935E-2,9.652186760E0
6.035790833E0,-1.699565735E0,-9.536219330E0,1.466949463E-2,9.686496683E0
6.045803833E0,-1.647773438E0,-9.546248474E0,-1.916015625E-2,9.687434353E0
6.055815833E0,-1.640139313E0,-9.504036255E0,-2.694396973E-2,9.644557433E0
6.065827833E0,-1.650767212E0,-9.436975708E0,-1.062789917E-2,9.580274310E0
6.075840833E0,-1.671573944E0,-9.339977417E0,5.134323120E-2,9.488517994E0
6.085852833E0,-1.689686279E0,-9.247320099E0,1.297801208E-1,9.401319674E0
6.095865833E0,-1.723515930E0,-9.198222198E0,1.992356873E-1,9.360421659E0
6.105877833E0,-1.748364258E0,-9.199868774E0,2.558180237E-1,9.368020384E0
6.115889833E0,-1.770667877E0,-9.213490448E0,2.462379456E-1,9.385323867E0
6.125902833E0,-1.776206360E0,-9.217082977E0,2.398013306E-1,9.389730152E0
6.135914833E0,-1.773212585E0,-9.176068268E0,2.294728088E-1,9.348645330E0
6.145927833E0,-1.795366516E0,-9.101373596E0,1.357676697E-1,9.277757009E0
6.155939833E0,-1.840722198E0,-9.057065735E0,-1.053808594E-1,9.242824409E0
6.165951833E0,-1.934127960E0,-9.096733246E0,-4.132905579E-1,9.309254309E0
6.175964833E0,-2.061962128E0,-9.204658813E0,-7.484436035E-1,9.462430952E0
6.185976833E0,-2.107467499E0,-9.224268036E0,-1.023421783E0,9.517138866E0
6.195989833E0,-1.967957611E0,-9.068891144E0,-1.063089294E0,9.340653220E0
6.206001833E0,-1.688488770E0,-8.821006622E0,-9.539662170E-1,9.031677790E0
6.216013833E0,-1.401535492E0,-8.598120117E0,-6.734495544E-1,8.737591521E0
6.226026833E0,-1.169068909E0,-8.507708130E0,-2.730322266E-1,8.591994316E0
6.236038833E0,-9.177415466E-1,-8.603508911E0,1.010398865E-1,8.652908424E0
6.246051833E0,-6.973997498E-1,-8.870403900E0,4.174818420E-1,8.907565484E0
6.256063833E0,-5.697152710E-1,-9.271719360E0,6.378236389E-1,9.311078046E0
6.266075833E0,-4.547543335E-1,-9.685309296E0,6.716532898E-1,9.719214773E0
6.276088833E0,-3.399430847E-1,-1.001537292E1,4.999603271E-1,1.003360436E1
6.286100833E0,-2.257305908E-1,-1.020817200E1,3.135978699E-1,1.021548205E1
6.296112833E0,-1.246907043E-1,-1.020233414E1,1.540296936E-1,1.020425866E1
6.306125833E0,-8.996292114E-2,-1.000758911E1,8.951385498E-2,1.000839377E1
6.316137833E0,-1.579216003E-1,-9.669741669E0,8.307723999E-2,9.671387956E0
6.326150833E0,-3.300636292E-1,-9.278605042E0,9.580078125E-2,9.284968029E0
6.336162833E0,-5.376818848E-1,-8.856931915E0,4.954696655E-2,8.873375889E0
6.346174833E0,-7.143145752E-1,-8.519084473E0,-7.708969116E-2,8.549326780E0
6.356187833E0,-9.011260986E-1,-8.210426331E0,-3.150947571E-1,8.265737322E0
6.366199833E0,-1.129700775E0,-7.969577179E0,-6.147715759E-1,8.072690279E0
6.376212833E0,-1.393302612E0,-7.734715576E0,-9.732760620E-1,7.919241347E0
6.386224833E0,-1.628463593E0,-7.500752106E0,-1.352886658E0,7.793810245E0
6.396236833E0,-1.790576477E0,-7.207062836E0,-1.698966980E0,7.618031743E0
6.406249833E0,-1.837129669E0,-6.837032318E0,-1.773961029E0,7.298424081E0
6.416261833E0,-1.785337372E0,-6.456224213E0,-1.555265808E0,6.876707959E0
6.426274833E0,-1.704206085E0,-6.093229065E0,-1.281485138E0,6.455537389E0
6.436286833E0,-1.568588104E0,-5.855523376E0,-1.279239807E0,6.195488450E0
6.446298833E0,-1.442101135E0,-5.765111389E0,-1.506467285E0,6.130710293E0
6.456311833E0,-1.292861481E0,-5.811814270E0,-1.572929077E0,6.158147595E0
6.466323833E0,-1.123713226E0,-5.890251160E0,-1.495839386E0,6.180236695E0
6.476336833E0,-8.855584717E-1,-6.069129181E0,-1.541494446E0,6.324140096E0
6.486348833E0,-4.290078735E-1,-6.350693665E0,-1.758243713E0,6.603542892E0
6.496360833E0,1.995350647E-1,-6.725065155E0,-2.007625122E0,7.021173279E0
6.506373833E0,8.041278076E-1,-7.051236877E0,-2.116897888E0,7.405931387E0
6.516385833E0,1.199755096E0,-7.484436035E0,-1.843416595E0,7.800921728E0
6.526397833E0,1.499880981E0,-8.079448700E0,-1.265169067E0,8.314312180E0
6.536410833E0,1.778451691E0,-8.941655731E0,-5.792953491E-1,9.135189146E0
6.546422833E0,2.137854309E0,-1.004605911E1,1.706451416E-1,1.027243128E1
6.556435833E0,2.645149384E0,-1.136167328E1,7.884104919E-1,1.169213522E1
6.566447833E0,3.294499054E0,-1.289328827E1,1.091829529E0,1.335225442E1
6.576459833E0,4.093088379E0,-1.456785599E1,1.079105988E0,1.517037476E1
6.586472833E0,4.938530273E0,-1.629197067E1,8.231382751E-1,1.704391229E1
6.596484833E0,5.571863251E0,-1.783136948E1,4.882846069E-1,1.868801272E1
6.606497833E0,5.887107697E0,-1.958482315E1,-3.906875610E-2,2.045054672E1
6.616509833E0,5.738466797E0,-2.189661575E1,-5.007087708E-1,2.264160975E1
6.626521833E0,4.948260040E0,-2.480132538E1,-6.065386963E-1,2.529740910E1
6.636534833E0,3.417094116E0,-2.799658081E1,-7.994874573E-1,2.821567383E1
6.646546833E0,1.467697906E0,-3.079201767E1,-1.440304871E0,3.086060543E1
6.656559833E0,-4.022135925E-1,-3.277075287E1,-2.905907135E0,3.290179806E1
6.666571833E0,-2.052232361E0,-3.368280624E1,-4.724176025E0,3.407434421E1
6.676583833E0,-3.063229980E0,-3.261522629E1,-5.115162964E0,3.315571227E1
6.686596833E0,-2.458936615E0,-2.934812027E1,-3.244203644E0,2.962909702E1
6.696608833E0,9.924362183E-2,-2.523632080E1,-7.680528259E-1,2.524820077E1
6.706621833E0,1.931882629E0,-2.192146408E1,3.680845642E-1,2.200950350E1
6.716633833E0,2.025438080E0,-1.932690948E1,1.703457642E-1,1.943349807E1
6.726645833E0,-4.679269409E-1,-1.606713821E1,1.008303223E0,1.610554443E1
6.736658833E0,-1.942660217E0,-1.405756714E1,-2.320773926E0,1.437967712E1
6.746670833E0,-3.430117035E0,-1.221205490E1,-2.847528534E0,1.300032332E1
6.756682833E0,-4.106710052E0,-9.244925079E0,-1.600322113E0,1.024181322E1
6.766695833E0,-2.733615417E0,-8.915460205E0,-1.641486511E0,9.468503677E0
6.776707833E0,-1.294807434E0,-8.095166016E0,9.430389404E-2,8.198605512E0
6.786720833E0,-8.839118958E-1,-6.506220245E0,1.642534332E0,6.768317454E0
6.796732833E0,-2.618055725E-1,-5.287454681E0,2.408042450E0,5.815873761E0
6.806744833E0,1.760339355E-1,-4.446952515E0,2.805166626E0,5.260735159E0
6.816757833E0,3.951782227E-1,-3.509751434E0,2.621648254E0,4.398586197E0
6.826769833E0,4.793032837E-1,-2.490371246E0,2.182162170E0,3.345670683E0
6.836782833E0,5.207670593E-1,-1.415755920E0,1.826801147E0,2.369127601E0
6.846794833E0,4.668791199E-1,-4.170327759E-1,1.590592346E0,1.709349719E0
6.856806833E0,2.516267395E-1,2.887495422E-1,1.363215179E0,1.415997154E0
6.866819833E0,6.945556641E-2,6.279441833E-1,1.084494781E0,1.255096372E0
6.876831833E0,2.260299683E-2,7.258406067E-1,8.839118958E-1,1.143964913E0
6.886844833E0,-1.811233521E-2,7.039860535E-1,6.459068298E-1,9.555731542E-1
6.896856833E0,-3.592529297E-2,6.339317322E-1,3.619473267E-1,7.308665644E-1
6.906868833E0,-4.340972900E-2,6.204597473E-1,1.270857239E-1,6.348271291E-1
6.916881833E0,-4.520599365E-2,6.397695923E-1,4.176315308E-2,6.427230150E-1
6.926893833E0,-4.954696655E-2,6.700067139E-1,3.278182983E-2,6.726355231E-1
6.936906833E0,-3.682342529E-2,6.884184265E-1,4.894821167E-2,6.911380629E-1
6.946918833E0,-3.128494263E-2,8.358618164E-1,-1.769320679E-1,8.549553675E-1
6.956930833E0,-5.508544922E-2,1.204994202E0,-5.986051941E-1,1.346615614E0
6.966943833E0,-1.505868530E-1,1.339115295E0,-4.534071350E-1,1.421789086E0
6.976955833E0,-2.055226135E-1,1.175655212E0,-7.349716187E-2,1.195745189E0
6.986968833E0,-3.140469360E-1,1.149759064E0,2.338137817E-1,1.214594693E0
6.996980833E0,-3.264710999E-1,1.244961090E0,4.243675232E-1,1.355211898E0
7.006992833E0,-2.505789185E-1,1.394500122E0,6.635700989E-1,1.564527296E0
7.017005833E0,-1.564247131E-1,1.667382660E0,1.052311707E0,1.977876021E0
7.027017583E0,-5.673202515E-2,2.034120026E0,1.385967865E0,2.462066149E0
7.037030583E0,1.001417542E-1,2.373464355E0,1.697619781E0,2.919807244E0
7.047042583E0,3.071612549E-1,2.628384247E0,1.893562317E0,3.253971425E0
7.057054583E0,4.367916870E-1,2.592908020E0,1.625769196E0,3.091453454E0
7.067067583E0,4.685256958E-1,2.249073029E0,1.138083344E0,2.563801769E0
7.077079583E0,4.616400146E-1,1.908830566E0,7.873626709E-1,2.115817953E0
7.087091583E0,4.595443726E-1,1.827699280E0,5.792953491E-1,1.971610709E0
7.097104583E0,2.779719543E-1,1.896705780E0,3.447331238E-1,1.947717164E0
7.107116583E0,-5.146298218E-1,1.416654053E0,3.579057312E-1,1.549144626E0
7.117129583E0,-1.507814484E0,4.590953064E-1,6.122268677E-1,1.690885790E0
7.127141583E0,-2.083217926E0,-3.375480652E-1,5.914201355E-1,2.191691904E0
7.137153583E0,-1.703008575E0,-1.251697083E0,-4.309538269E-1,2.157012980E0
7.147166583E0,-1.345402222E0,-4.930447083E0,-5.491181030E0,7.501498829E0
7.157178583E0,-3.415896606E-1,-4.494852905E0,-7.619455261E0,8.853049453E0
7.167191583E0,5.679190063E-1,-5.733227692E0,-1.389695114E1,1.504385864E1
7.177203583E0,8.128097534E-1,-8.484805756E0,-2.255838959E1,2.411500631E1
7.187215583E0,1.108894043E0,-1.139011414E1,-3.053590027E1,3.260989959E1
7.197228583E0,1.370100861E0,-1.136167328E1,-2.513483185E1,2.761746853E1
7.207240583E0,1.222208405E0,-8.478818207E0,-8.823102264E0,1.229761299E1
7.217253583E0,1.354832611E0,-1.306093964E1,1.562750244E0,1.322368723E1
7.227265583E0,2.613565063E0,-2.438608887E1,8.185578003E0,2.585567133E1
7.237277583E0,3.953578491E0,-4.218557465E1,1.473086700E1,4.485813119E1
7.247290583E0,4.277355194E0,-5.944812698E1,1.936792419E1,6.266970605E1
7.257302583E0,3.328179016E0,-7.337232147E1,1.875150604E0,7.347169879E1
7.267315583E0,1.023421783E0,-7.089063217E1,-2.395049469E1,7.483418549E1
7.277327583E0,2.202669525E0,-4.197466324E1,-9.617051239E0,4.311857815E1
7.287339583E0,2.575544128E0,-2.219105347E1,1.035771103E1,2.462434688E1
7.297352583E0,7.973020020E0,-8.068222046E-2,7.712861023E0,1.109341169E1
7.307364583E0,1.352886658E1,7.530390472E0,-1.252729935E1,1.991658205E1
7.317377583E0,6.169420624E0,-1.420740555E1,-1.653177200E1,2.265417420E1
7.327389583E0,1.017733612E0,-2.091974716E1,-5.352718964E0,2.161765952E1
7.337401583E0,1.899699554E0,-1.543395493E1,-1.174607391E0,1.559472749E1
7.347414583E0,1.592687988E0,-1.462413895E1,-1.860630798E-1,1.471178828E1
7.357426583E0,1.016087036E0,-1.416833679E1,6.985972595E-1,1.422189293E1
7.367438583E0,1.092577972E0,-1.269719604E1,1.058898010E0,1.278803265E1
7.377451583E0,1.478475494E0,-1.047342041E1,1.462309113E0,1.067786368E1
7.387463583E0,1.570683746E0,-8.444389801E0,1.805545349E0,8.776944830E0
7.397476583E0,1.400936737E0,-6.838379517E0,1.714085541E0,7.187777640E0
7.407488583E0,1.103205872E0,-5.139711914E0,1.038240967E0,5.358324930E0
7.417500583E0,8.547225952E-1,-3.415447540E0,5.478607178E-2,3.521197826E0
7.427513583E0,6.542893982E-1,-1.825304260E0,-8.038284302E-1,2.099040353E0
7.437525583E0,4.483177185E-1,-5.475613403E-1,-1.263821869E0,1.448467436E0
7.447538583E0,2.333647156E-1,3.106040955E-1,-1.049317932E0,1.118929005E0
7.457550583E0,3.218307495E-2,7.306306458E-1,-5.929170227E-1,9.414921596E-1
7.467562583E0,-7.903564453E-2,8.291258240E-1,-1.607656860E-1,8.482581393E-1
7.477575583E0,-8.442443848E-2,7.074288940E-1,1.151106262E-1,7.216880089E-1
7.487587583E0,-1.109193420E-1,5.583389282E-1,1.817221069E-1,5.975519922E-1
7.497600583E0,-1.757345581E-1,4.948709106E-1,1.904040527E-1,5.585996388E-1
7.507612583E0,-3.138972473E-1,5.864804077E-1,-1.020877075E-1,6.729878532E-1
7.517624583E0,-7.520361328E-1,6.897656250E-1,-2.122136993E0,2.354739982E0
7.527637583E0,-1.695973206E0,-6.337820435E-1,-5.551954651E0,5.839709345E0
7.537649583E0,-1.683399353E0,-2.408940582E0,-5.936504974E0,6.624116501E0
7.547662583E0,-1.210832062E0,-2.777174835E0,-4.199816437E0,5.178539606E0
7.557674583E0,-1.027164001E0,-2.901416473E0,-2.321522369E0,3.855223670E0
7.567686583E0,-8.803193665E-1,-2.932701416E0,-6.087840271E-1,3.121909315E0
7.577699583E0,-8.405021667E-1,-3.122955780E0,9.653425598E-1,3.375082659E0
7.587711583E0,-8.707392883E-1,-6.507268066E0,2.603535919E0,7.062656999E0
7.597724583E0,-1.484163666E0,-1.199455719E1,4.030967560E0,1.274051975E1
7.607736583E0,-2.033820648E0,-1.742391678E1,5.219046936E0,1.830212428E1
7.617748583E0,-2.401605835E0,-2.247695892E1,6.180497589E0,2.343458861E1
7.627761583E0,-2.735411682E0,-2.536969345E1,5.185965729E0,2.603839595E1
7.637773583E0,-3.169958038E0,-2.541669571E1,1.780846710E0,2.567544488E1
7.647785583E0,-3.558699646E0,-2.285941360E1,-1.868264923E0,2.321007426E1
7.657798583E0,-2.977757721E0,-1.814571579E1,-4.584815826E0,1.895137406E1
7.667810583E0,-1.910177765E0,-1.337633377E1,-6.306236115E0,1.491119372E1
7.677823583E0,-1.116677856E0,-9.981243896E0,-6.347400513E0,1.188114862E1
7.687835583E0,-5.993536377E-1,-7.952063599E0,-5.336103516E0,9.595235327E0
7.697847583E0,-4.472698975E-1,-7.099586334E0,-3.881278839E0,8.103610424E0
7.707860583E0,-6.352789307E-1,-7.180567932E0,-2.417921906E0,7.603320425E0
7.717872583E0,-9.336085510E-1,-7.580835571E0,-8.966354370E-1,7.690555766E0
7.727885583E0,-1.100810852E0,-7.971373444E0,4.499642944E-1,8.059593475E0
7.737897583E0,-1.018182678E0,-8.326584778E0,1.758692780E0,8.570980709E0
7.747909583E0,-1.030606842E0,-8.727301483E0,2.185155945E0,9.055542399E0
7.757922583E0,-1.273102570E0,-9.188342743E0,1.572480011E0,9.408460336E0
7.767934583E0,-1.775457916E0,-9.794132996E0,5.903723145E-1,9.971250243E0
7.777947583E0,-2.161205750E0,-1.019110748E1,-1.678010559E-1,1.041909973E1
7.787959583E0,-2.298470306E0,-1.051099228E1,-2.896476746E-1,1.076326253E1
7.797971583E0,-2.246228943E0,-1.077968353E1,1.586700439E-2,1.101123850E1
7.807984583E0,-2.075134735E0,-1.075109299E1,3.779640198E-1,1.095605045E1
7.817996583E0,-1.844015350E0,-1.033106644E1,6.054908752E-1,1.051180030E1
7.828009583E0,-1.507964172E0,-9.753717041E0,8.262817383E-1,9.904125079E0
7.838021583E0,-1.194815369E0,-9.263187103E0,1.040336609E0,9.397686914E0
7.848033583E0,-1.057101746E0,-8.890761566E0,1.138532410E0,9.025483997E0
7.858046583E0,-9.894424438E-1,-8.568481750E0,1.090332642E0,8.694061256E0
7.868058583E0,-9.454339600E-1,-8.337212677E0,8.777746582E-1,8.436435796E0
7.878071583E0,-1.022074585E0,-8.262817383E0,3.899391174E-1,8.334916921E0
7.888083583E0,-1.325792999E0,-8.564589844E0,-5.593867493E-1,8.684632393E0
7.898095583E0,-1.763033752E0,-9.201964417E0,-1.665736084E0,9.516255242E0
7.908108583E0,-2.140399017E0,-9.823471985E0,-2.244732056E0,1.030149173E1
7.918120583E0,-2.414928131E0,-1.022987686E1,-2.286195831E0,1.075680946E1
7.928132583E0,-2.615960083E0,-1.042641815E1,-2.110910339E0,1.095487951E1
7.938145583E0,-2.788251801E0,-1.046069687E1,-1.817221069E0,1.097737762E1
7.948157583E0,-2.906805267E0,-1.037956558E1,-1.312620392E0,1.085853907E1
7.958170583E0,-2.933449860E0,-1.024020538E1,-6.842271423E-1,1.067403865E1
7.968182583E0,-2.794239349E0,-1.001133133E1,-3.936813354E-2,1.039404052E1
7.978194583E0,-2.346221008E0,-9.724078674E0,5.382806396E-1,1.001759478E1
7.988207583E0,-1.653760986E0,-9.426497498E0,1.020278320E0,9.624694713E0
7.998219583E0,-9.689350891E-1,-9.160500641E0,1.313967590E0,9.304843794E0
8.008232583E0,-4.564009094E-1,-8.997190247E0,1.334774323E0,9.107104733E0
8.018244583E0,-2.231858826E-1,-9.005273438E0,1.233435059E0,9.092091270E0
8.028257125E0,-2.516267395E-1,-9.172775116E0,1.043629761E0,9.235382094E0
8.038270125E0,-3.852987671E-1,-9.394015045E0,7.559280396E-1,9.432253231E0
8.048282125E0,-4.782554626E-1,-9.628726959E0,3.936813354E-1,9.648631827E0
8.058295125E0,-5.396278381E-1,-9.915380859E0,2.529739380E-2,9.930086392E0
8.068307125E0,-5.620811462E-1,-1.023766068E1,-2.897973633E-1,1.025717377E1
8.078319125E0,-5.659730530E-1,-1.041878403E1,-5.614823914E-1,1.044924153E1
8.088332125E0,-6.321354675E-1,-1.034977753E1,-7.421566772E-1,1.039558977E1
8.098344125E0,-1.038540344E0,-1.008602600E1,-7.575746155E-1,1.016761554E1
8.108357125E0,-1.681303711E0,-9.906100159E0,-6.186634827E-1,1.006679428E1
8.118369125E0,-2.047442322E0,-9.756710815E0,-4.857398987E-1,9.981050508E0
8.128381125E0,-2.099683685E0,-9.567953339E0,-3.775149536E-1,9.802903662E0
8.138394125E0,-2.097288666E0,-9.437873840E0,-2.406994629E-1,9.671091903E0
8.148406125E0,-2.050585785E0,-9.372310181E0,-9.819580078E-2,9.594516277E0
8.158418125E0,-1.912722473E0,-9.329948273E0,6.152206421E-2,9.524191671E0
8.168431125E0,-1.604513397E0,-9.312135315E0,2.594105530E-1,9.452916016E0
8.178443125E0,-1.211730194E0,-9.366322632E0,4.734654236E-1,9.456239169E0
8.188456125E0,-8.548722839E-1,-9.570947113E0,6.283932495E-1,9.629574930E0
8.198468125E0,-6.176156616E-1,-9.794881439E0,6.297404480E-1,9.834516996E0
8.208480125E0,-4.695735168E-1,-9.907746735E0,4.065545654E-1,9.927196546E0
8.218493125E0,-4.134402466E-1,-9.917775879E0,3.233276367E-2,9.926442295E0
8.228505125E0,-4.463717651E-1,-9.906100159E0,-3.484753418E-1,9.922273085E0
8.238518125E0,-5.983058167E-1,-9.946965179E0,-5.978567505E-1,9.982861254E0
8.248530125E0,-8.264314270E-1,-9.932595062E0,-6.580316162E-1,9.988615479E0
8.258542125E0,-1.128203888E0,-9.826914825E0,-5.894741821E-1,9.909015027E0
8.268555125E0,-1.457070007E0,-9.724677429E0,-4.668791199E-1,9.844306995E0
8.278567125E0,-1.757794647E0,-9.645192719E0,-3.805087280E-1,9.811440847E0
8.288580125E0,-1.996398468E0,-9.595346375E0,-3.134481812E-1,9.805841558E0
8.298592125E0,-2.143243103E0,-9.550290070E0,-2.868035889E-1,9.792026742E0
8.308604125E0,-2.195035400E0,-9.510921936E0,-2.546205139E-1,9.764253586E0
8.318617125E0,-2.203118591E0,-9.471254425E0,-2.260299683E-1,9.726740536E0
8.328629125E0,-2.179018707E0,-9.429940338E0,-1.814227295E-1,9.680124561E0
8.338642125E0,-2.089953918E0,-9.397457886E0,-1.136137390E-1,9.627721962E0
8.348654125E0,-1.895358582E0,-9.400002594E0,-5.927673340E-2,9.589366332E0
8.358666125E0,-1.594035187E0,-9.449250183E0,-2.933898926E-2,9.582804286E0
8.368679125E0,-1.281485138E0,-9.532926178E0,-3.233276367E-2,9.618728143E0
8.378691125E0,-1.021924896E0,-9.616602173E0,-4.565505981E-2,9.670855817E0
8.388703125E0,-8.542735291E-1,-9.715247040E0,-4.296066284E-2,9.752827996E0
8.398716125E0,-7.550299072E-1,-9.798773346E0,-3.008743286E-2,9.827865206E0
8.408728125E0,-7.041357422E-1,-9.854906616E0,-3.442840576E-2,9.880089922E0
8.418741125E0,-7.153623962E-1,-9.876611481E0,-7.200027466E-2,9.902746172E0
8.428753125E0,-8.069718933E-1,-9.886490936E0,-1.516346741E-1,9.920529207E0
8.438766125E0,-9.783654785E-1,-9.866732025E0,-2.439926147E-1,9.918121408E0
8.448778125E0,-1.190175018E0,-9.824220428E0,-2.995271301E-1,9.900582816E0
8.458790125E0,-1.375190277E0,-9.754764862E0,-3.293151855E-1,9.856725334E0
8.468803125E0,-1.503772888E0,-9.673483887E0,-3.209326172E-1,9.794928338E0
8.478815125E0,-1.562301178E0,-9.615404663E0,-2.971321106E-1,9.746028899E0
8.488827125E0,-1.567839661E0,-9.608818359E0,-2.586621094E-1,9.739323259E0
8.498840125E0,-1.516047363E0,-9.633217621E0,-2.025288391E-1,9.753886367E0
8.508852125E0,-1.390757904E0,-9.669891357E0,-1.564247131E-1,9.770643536E0
8.518865125E0,-1.207987976E0,-9.713151398E0,-1.112187195E-1,9.788611476E0
8.528877125E0,-1.033301239E0,-9.763596497E0,-9.041198730E-2,9.818538706E0
8.538889125E0,-8.958869934E-1,-9.798473969E0,-7.723937988E-2,9.839647938E0
8.548902125E0,-7.857160950E-1,-9.816586304E0,-8.128097534E-2,9.848315746E0
8.558914125E0,-7.201524353E-1,-9.835297394E0,-7.229965210E-2,9.861892394E0
8.568927125E0,-7.135661316E-1,-9.851763153E0,-7.095245361E-2,9.877826082E0
8.578939125E0,-7.539820862E-1,-9.856253815E0,-7.349716187E-2,9.885323974E0
8.588951125E0,-8.249345398E-1,-9.837692413E0,-3.008743286E-2,9.872264901E0
8.598964125E0,-9.339079285E-1,-9.805209961E0,1.047821045E-3,9.849585143E0
8.608976125E0,-1.094972992E0,-9.763297119E0,2.290237427E-2,9.824533628E0
8.618989125E0,-1.237027588E0,-9.715845795E0,3.547622681E-2,9.794343027E0
8.629001125E0,-1.361568604E0,-9.677375793E0,4.146377563E-2,9.772778037E0
8.639013125E0,-1.450034637E0,-9.642648010E0,5.014572144E-2,9.751193552E0
8.649026125E0,-1.488055573E0,-9.621092834E0,3.562591553E-2,9.735553704E0
8.659038125E0,-1.477727051E0,-9.609866180E0,2.020797729E-2,9.722839791E0
8.669051125E0,-1.387015686E0,-9.622440033E0,-2.993774414E-3,9.721891465E0
8.679063125E0,-1.273401947E0,-9.671388245E0,-5.388793945E-3,9.754861974E0
8.689075125E0,-1.147214355E0,-9.722881165E0,-1.511856079E-2,9.790339498E0
8.699088125E0,-1.020128632E0,-9.760602722E0,-1.766326904E-2,9.813783160E0
8.709100125E0,-9.443861389E-1,-9.783505096E0,-1.871109009E-2,9.828997266E0
8.719112125E0,-9.089099121E-1,-9.791288910E0,-1.586700439E-2,9.833397557E0
8.729125125E0,-9.180409241E-1,-9.785900116E0,-4.266128540E-2,9.828960281E0
8.739137125E0,-9.665400696E-1,-9.784852295E0,-6.376739502E-2,9.832680226E0
8.749150125E0,-1.035546570E0,-9.796677704E0,-8.861572266E-2,9.851654860E0
8.759162125E0,-1.131646729E0,-9.803563385E0,-8.861572266E-2,9.869059332E0
8.769174125E0,-1.222657471E0,-9.782307587E0,-1.032852173E-1,9.858960434E0
8.779187125E0,-1.300345917E0,-9.733808441E0,-1.207987976E-1,9.821024316E0
8.789199125E0,-1.362766113E0,-9.681866455E0,-1.287322998E-1,9.778151233E0
8.799212125E0,-1.413360901E0,-9.650581512E0,-1.475930786E-1,9.754644857E0
8.809224125E0,-1.410367126E0,-9.640851746E0,-1.703457642E-1,9.744956413E0
8.819236125E0,-1.387764130E0,-9.644144897E0,-1.865121460E-1,9.745265869E0
8.829249125E0,-1.316362610E0,-9.673034821E0,-1.948947144E-1,9.764138319E0
8.839261125E0,-1.243015137E0,-9.692644043E0,-1.993853760E-1,9.774056973E0
8.849274125E0,-1.173559570E0,-9.715696106E0,-1.962419128E-1,9.788284006E0
8.859286125E0,-1.115031281E0,-9.740544434E0,-1.920506287E-1,9.806038143E0
8.869298125E0,-1.060394897E0,-9.760003967E0,-1.755848694E-1,9.819009361E0
8.879311125E0,-1.035546570E0,-9.771230621E0,-1.939965820E-1,9.827865446E0
8.889323125E0,-1.058149567E0,-9.773775330E0,-2.161505127E-1,9.833264247E0
8.899336125E0,-1.086291046E0,-9.759704590E0,-2.406994629E-1,9.822922078E0
8.909348125E0,-1.152004395E0,-9.736951904E0,-2.709365845E-1,9.808606076E0
8.919360125E0,-1.219514008E0,-9.726174316E0,-2.811154175E-1,9.806360544E0
8.929373125E0,-1.272054749E0,-9.693841553E0,-2.746788025E-1,9.780804455E0
8.939385125E0,-1.334025879E0,-9.689500580E0,-2.918930054E-1,9.785256668E0
8.949398125E0,-1.397194519E0,-9.692943420E0,-3.062631226E-1,9.797913134E0
8.959410125E0,-1.423240356E0,-9.708960114E0,-3.026705933E-1,9.817389118E0
8.969422125E0,-1.429826660E0,-9.720037079E0,-3.122506714E-1,9.829599462E0
8.979435125E0,-1.419198761E0,-9.713001709E0,-3.192860413E-1,9.821327349E0
8.989447125E0,-1.412911835E0,-9.698631592E0,-3.155438232E-1,9.806087013E0
8.999459125E0,-1.395997009E0,-9.677375793E0,-3.421884155E-1,9.783532226E0
9.009472125E0,-1.370400238E0,-9.651180267E0,-3.710783386E-1,9.755048770E0
9.019484125E0,-1.315015411E0,-9.632319489E0,-4.141886902E-1,9.730487990E0
9.029497083E0,-1.251697083E0,-9.667047272E0,-4.426295471E-1,9.757790193E0
9.039509083E0,-1.203647003E0,-9.729916534E0,-4.586462402E-1,9.814805054E0
9.049521083E0,-1.145717468E0,-9.804012451E0,-4.267625427E-1,9.879952172E0
9.059534083E0,-1.071771240E0,-9.841434631E0,-3.728746033E-1,9.906642452E0
9.069546083E0,-9.804611206E-1,-9.818232880E0,-3.370989990E-1,9.872823133E0
9.079559083E0,-8.915460205E-1,-9.745633850E0,-2.643502808E-1,9.789898596E0
9.089571083E0,-8.167016602E-1,-9.684560852E0,-1.709445190E-1,9.720439420E0
9.099583083E0,-7.734416199E-1,-9.628876648E0,-2.694396973E-3,9.659890512E0
9.109596083E0,-7.589218140E-1,-9.573042755E0,1.519340515E-1,9.604279977E0
9.119608083E0,-7.635621643E-1,-9.567803650E0,2.417472839E-1,9.601267396E0
9.129621083E0,-7.502398682E-1,-9.604327698E0,2.189945984E-1,9.636074357E0
9.139633083E0,-7.617658997E-1,-9.703122253E0,1.125659180E-1,9.733629325E0
9.149645083E0,-7.861651611E-1,-9.835896149E0,-5.029541016E-2,9.867392682E0
9.159658083E0,-8.500822449E-1,-9.950108643E0,-2.251318359E-1,9.988893140E0
9.169670083E0,-9.452842712E-1,-9.994865570E0,-3.336561584E-1,1.004501003E1
9.179683083E0,-1.038839722E0,-9.936786346E0,-4.174818420E-1,9.999660092E0
9.189695083E0,-1.125509491E0,-9.828262024E0,-4.364923096E-1,9.902122579E0
9.199707083E0,-1.214125214E0,-9.722881165E0,-4.266128540E-1,9.807676417E0
9.209720083E0,-1.296154633E0,-9.682614899E0,-4.171824646E-1,9.777887774E0
9.219732083E0,-1.371597748E0,-9.669142914E0,-4.011657715E-1,9.774177154E0
9.229745083E0,-1.413510590E0,-9.679770813E0,-3.914360046E-1,9.790260330E0
9.239757083E0,-1.457219696E0,-9.689650269E0,-3.872447205E-1,9.806261777E0
9.249769083E0,-1.476379852E0,-9.691895599E0,-3.715274048E-1,9.810737505E0
9.259782083E0,-1.475481720E0,-9.676028595E0,-3.463796997E-1,9.794006053E0
9.269794083E0,-1.490151215E0,-9.645641785E0,-2.999761963E-1,9.764678274E0
9.279807083E0,-1.478026428E0,-9.618398438E0,-2.083666992E-1,9.733527999E0
9.289819083E0,-1.461560669E0,-9.585915985E0,-1.329235840E-1,9.697608651E0
9.299831083E0,-1.459015961E0,-9.565408630E0,-4.520599365E-2,9.676146620E0
9.309844083E0,-1.444496155E0,-9.513017578E0,-5.688171387E-3,9.622063445E0
9.319856083E0,-1.438358917E0,-9.416767731E0,2.020797729E-2,9.526006468E0
9.329868083E0,-1.431024170E0,-9.304351501E0,-2.245330811E-3,9.413755472E0
9.339881083E0,-1.435664520E0,-9.186696167E0,-1.047821045E-1,9.298790156E0
9.349893083E0,-1.493594055E0,-9.055718536E0,-3.315605164E-1,9.184051055E0
9.359906083E0,-1.586550751E0,-8.863817596E0,-7.203021240E-1,9.033451213E0
9.369918083E0,-1.645228729E0,-8.563841400E0,-1.284628601E0,8.814557717E0
9.379930083E0,-1.584155731E0,-8.255482635E0,-1.924398193E0,8.623563726E0
9.389943083E0,-1.391955414E0,-8.049061890E0,-2.500250702E0,8.542610301E0
9.399955083E0,-1.005459137E0,-7.966433716E0,-2.676434326E0,8.463942044E0
9.409968083E0,-5.007087708E-1,-7.925419006E0,-2.474354553E0,8.317776515E0
9.419980083E0,1.047821045E-3,-7.845934296E0,-2.030527496E0,8.104426444E0
9.429992083E0,3.966751099E-1,-7.742649078E0,-1.308578796E0,7.862464268E0
9.440005083E0,7.231462097E-1,-7.628735962E0,-5.974076843E-1,7.686185579E0
9.450017083E0,1.019978943E0,-7.410190430E0,-1.167572021E-2,7.480067885E0
9.460030083E0,1.296154633E0,-7.122189331E0,3.869453430E-1,7.249505114E0
9.470042083E0,1.550775146E0,-6.814429321E0,5.514532471E-1,7.010381674E0
9.480054083E0,1.560654602E0,-6.043233032E0,-1.950444031E-1,6.244545667E0
9.490067083E0,1.739083557E0,-5.803581390E0,4.266128540E-2,6.058695285E0
9.500079083E0,1.902693329E0,-5.811065826E0,4.191284180E-1,6.128980060E0
9.510092083E0,1.907034302E0,-5.495372314E0,-3.412902832E-2,5.816963254E0
9.520104083E0,2.005080414E0,-5.322930908E0,-5.364843750E-1,5.713296457E0
9.530116083E0,2.126477966E0,-5.164111176E0,-9.933343506E-1,5.672447964E0
9.540129083E0,2.221979370E0,-5.162464600E0,-9.684860229E-1,5.703174400E0
9.550141083E0,2.133363647E0,-5.295687561E0,-7.596702576E-1,5.759569958E0
9.560154083E0,1.851050720E0,-5.634283447E0,-7.297325134E-1,5.975286460E0
9.570166083E0,1.378333740E0,-6.235583038E0,-1.090033264E0,6.478462182E0
9.580178083E0,9.117539978E-1,-6.934629364E0,-1.619332581E0,7.179318754E0
9.590191083E0,4.933740234E-1,-7.464527435E0,-1.910626831E0,7.720950890E0
9.600203083E0,1.104702759E-1,-7.878117371E0,-1.914069672E0,8.108057702E0
9.610216083E0,-1.351689148E-1,-8.546776886E0,-2.014211426E0,8.781953851E0
9.620228083E0,-2.168989563E-1,-9.690398712E0,-2.381996613E0,9.981221379E0
9.630240083E0,-1.471440125E-1,-1.116034195E1,-2.955454102E0,1.154597734E1
9.640253083E0,2.676434326E-1,-1.275692184E1,-3.838318176E0,1.332454031E1
9.650265083E0,9.692344666E-1,-1.444526093E1,-4.526736603E0,1.516892623E1
9.660278083E0,1.652264099E0,-1.610426102E1,-3.901037750E0,1.665218589E1
9.670290083E0,2.178120575E0,-1.773571838E1,-2.572250977E0,1.805315460E1
9.680302083E0,2.728675690E0,-1.978061600E1,-2.616409149E0,2.013862054E1
9.690315083E0,3.390299835E0,-2.235720795E1,-3.858077087E0,2.293956493E1
9.700327083E0,4.164639587E0,-2.489922180E1,-3.833228760E0,2.553446909E1
9.710339083E0,5.049000549E0,-2.716805374E1,-2.233206024E0,2.772332519E1
9.720352083E0,6.084996185E0,-2.937192078E1,-8.551716614E-1,3.000780277E1
9.730364083E0,7.170389099E0,-3.123584473E1,-7.556286621E-1,3.205719031E1
9.740377083E0,8.311765594E0,-3.181963074E1,-1.858385468E0,3.293976236E1
9.750389083E0,9.229058075E0,-3.026646057E1,-2.918331299E0,3.177657637E1
9.760401083E0,9.186696167E0,-2.704081833E1,-2.194436646E0,2.864291875E1
9.770414083E0,8.076903992E0,-2.443339050E1,-9.175918579E-2,2.573393420E1
9.780426083E0,5.020709381E0,-2.156819870E1,5.987548828E-4,2.214485760E1
9.790439083E0,2.369123383E0,-1.914952835E1,-1.242416382E0,1.933547983E1
9.800451083E0,1.164428558E0,-1.852353012E1,-2.255210266E0,1.869660492E1
9.810463083E0,1.063688049E0,-1.864837051E1,-3.520678711E0,1.900758621E1
9.820476083E0,2.194436646E-1,-1.476499603E1,-1.844015350E0,1.488131903E1
9.830488083E0,-5.792953491E-2,-1.260064682E1,-1.190773773E0,1.265691899E1
9.840501083E0,-6.286926270E-3,-1.077803696E1,-1.341959381E0,1.086126029E1
9.850513083E0,-3.008743286E-2,-9.099727020E0,-1.657203827E0,9.249446558E0
9.860525083E0,-2.121089172E-1,-7.135811005E0,-1.973346405E0,7.406678400E0
9.870538083E0,-4.819976807E-1,-5.067561951E0,-1.990859985E0,5.465896941E0
9.880550083E0,-6.563850403E-1,-3.385659485E0,-1.697619781E0,3.843884024E0
9.890563083E0,-7.271878052E-1,-2.297123108E0,-1.436712341E0,2.805301950E0
9.900575083E0,-7.083270264E-1,-1.328936462E0,-1.587299194E0,2.187994065E0
9.910587083E0,-7.156617737E-1,-1.673519897E-1,-2.171833649E0,2.292823556E0
9.920600083E0,-7.575746155E-1,1.016536102E0,-2.792742462E0,3.067030389E0
9.930612083E0,-8.975335693E-1,2.145638123E0,-3.021766205E0,3.813187703E0
9.940625083E0,-1.109492798E0,3.140768738E0,-2.552192688E0,4.196318631E0
9.950637083E0,-1.199755096E0,3.719914398E0,-1.897154846E0,4.344694688E0
9.960649083E0,-1.241069183E0,3.726949768E0,-1.321601715E0,4.144519078E0
9.970662083E0,-1.323996735E0,3.397484894E0,-5.436694336E-1,3.686658027E0
9.980674083E0,-1.462907867E0,2.688110046E0,5.132826233E-1,3.103142617E0
9.990687083E0,-1.545086975E0,1.761087799E0,1.426383820E0,2.742862519E0
1.000069908E1,-1.511706390E0,9.737251282E-1,1.908830566E0,2.622409382E0
1.001071108E1,-1.364412689E0,6.093827820E-1,1.864223328E0,2.389204465E0
1.002072408E1,-1.121916962E0,4.352947998E-1,1.735341339E0,2.111773850E0
1.003073633E1,-8.963360596E-1,4.288581848E-1,1.535806274E0,1.829218026E0
1.004074833E1,-6.557862854E-1,4.828958130E-1,1.404678955E0,1.623689313E0
1.005076133E1,-4.448748779E-1,4.977149963E-1,1.353635101E0,1.509291841E0
1.006077333E1,-2.540217590E-1,4.278103638E-1,1.382375336E0,1.469186962E0
1.007078633E1,-1.166075134E-1,3.724255371E-1,1.449286194E0,1.500909246E0
1.008079833E1,8.831634521E-3,4.056564331E-1,1.423539734E0,1.480236641E0
1.009081033E1,1.710942078E-1,5.363346863E-1,1.345701599E0,1.458712075E0
1.010082333E1,2.823129272E-1,7.066804504E-1,1.220711517E0,1.438483388E0
1.011083533E1,3.968247986E-1,7.987390137E-1,1.074315948E0,1.396283886E0
1.012084833E1,4.770579529E-1,7.905061340E-1,9.880952454E-1,1.352337403E0
1.013086033E1,5.318440247E-1,7.686515808E-1,9.181906128E-1,1.310250862E0
1.014087233E1,5.462141418E-1,7.201524353E-1,8.120613098E-1,1.215077360E0
1.015088533E1,5.224136353E-1,6.677613831E-1,6.738986206E-1,1.083033066E0
1.016089733E1,4.818479919E-1,6.324348450E-1,4.733157349E-1,9.252994679E-1
1.017091033E1,4.294569397E-1,5.511538696E-1,2.887495422E-1,7.560291986E-1
1.018092233E1,3.854484558E-1,4.162843323E-1,1.661544800E-1,5.911602732E-1
1.019093433E1,3.601510620E-1,2.607577515E-1,9.699829102E-2,4.550956612E-1
1.020094733E1,3.647914124E-1,1.092727661E-2,1.070274353E-1,3.803249292E-1
1.021095933E1,3.555107117E-1,-3.980223083E-1,6.406677246E-2,5.375073724E-1
1.022097233E1,2.529739380E-1,-1.409468994E0,-2.100881195E0,2.542498860E0
1.023098433E1,-2.094145203E-1,-3.231929169E0,-5.732030182E0,6.583721637E0
1.024099633E1,-3.626957703E-1,-3.946992188E0,-4.753365326E0,6.189085350E0
1.025100933E1,-1.140628052E-1,-7.003785553E0,-2.871029663E0,7.570259819E0
1.026102133E1,-3.818559265E-1,-1.141795624E1,-5.150489502E0,1.253168308E1
1.027103433E1,8.349636841E-1,-1.792866714E1,-6.878945160E0,1.922119030E1
1.028104633E1,2.748434601E0,-2.978401382E1,1.919907532E0,2.997211066E1
1.029105833E1,5.172793121E0,-4.647026459E1,6.160738678E0,4.716140350E1
1.030107133E1,1.047596512E1,-6.021902390E1,-2.818488922E0,6.118840220E1
1.031108333E1,1.379471375E1,-5.902360977E1,-9.412426758E0,6.134064244E1
1.032109633E1,1.216729797E1,-4.497637115E1,-1.480870514E0,4.661662879E1
1.033110833E1,9.217082977E0,-2.868948990E1,5.376818848E0,3.060966563E1
1.034112033E1,2.628234558E0,-9.926757202E0,2.545456696E1,2.744782513E1
1.035113333E1,6.310876465E0,-5.180576935E0,-6.677164764E0,1.054751480E1
1.036114533E1,1.156001083E1,-2.781635559E1,-1.837533829E1,3.528507540E1
1.037115833E1,7.911947021E0,-3.120081757E1,-6.715485077E0,3.288141819E1
1.038117033E1,5.337301025E0,-2.266272263E1,-2.052382050E0,2.337301973E1
1.039118233E1,3.650907898E0,-1.797013092E1,-7.605683899E-1,1.835301605E1
1.040119533E1,2.663411407E0,-1.716794907E1,8.168513489E-1,1.739251223E1
1.041120733E1,2.692900085E0,-1.656260788E1,2.279310150E0,1.693419456E1
1.042122033E1,2.802921295E0,-1.504925491E1,3.553909607E0,1.571517466E1
1.043123233E1,2.630629578E0,-1.338082443E1,4.607269135E0,1.439422118E1
1.044124433E1,2.206561432E0,-1.166524200E1,4.717440033E0,1.277501565E1
1.045125733E1,1.908830566E0,-9.846224670E0,3.967649231E0,1.078582472E1
1.046126933E1,1.741029510E0,-7.907755737E0,2.517614594E0,8.479514597E0
1.047128133E1,1.432820435E0,-5.973927155E0,2.366578674E-1,6.147909156E0
1.048129433E1,1.095571747E0,-3.920197906E0,-2.869532776E0,4.980205561E0
1.049130633E1,7.981402588E-1,-2.041604462E0,-5.133275299E0,5.581728401E0
1.050131933E1,5.035528564E-1,-1.078058167E0,-4.755311279E0,4.901913938E0
1.051133133E1,2.894979858E-1,-7.830216980E-1,-3.382066956E0,3.483577034E0
1.052134333E1,-1.257385254E-1,-6.060896301E-1,-2.522853699E0,2.597680812E0
1.053135633E1,-4.466711426E-1,-4.927752686E-1,-1.420845337E0,1.568803380E0
1.054136833E1,-4.830455017E-1,-4.397854614E-1,-2.429447937E-1,6.969694266E-1
1.055138133E1,-4.629872131E-1,-3.924838257E-1,7.863148499E-1,9.933235908E-1
1.056139333E1,-4.453239441E-1,-3.734733582E-1,1.563049622E0,1.667609032E0
1.057140533E1,-4.519102478E-1,-3.453318787E-1,1.999691620E0,2.079000614E0
1.058141833E1,-5.548960876E-1,-4.549040222E-1,1.970202942E0,2.096794451E0
1.059143033E1,-7.601193237E-1,-8.111631775E-1,1.935924225E0,2.232391026E0
1.060144333E1,-1.002165985E0,-1.256487122E0,1.841919708E0,2.444537740E0
1.061145533E1,-1.132095795E0,-1.813927917E0,1.919009399E0,2.873077175E0
1.062146733E1,-1.132694550E0,-2.540516968E0,2.104174347E0,3.487803476E0
1.063148033E1,-1.144969025E0,-3.567231903E0,2.229613495E0,4.359733232E0
1.064149233E1,-1.196162567E0,-4.942272491E0,2.363135834E0,5.607251843E0
1.065150533E1,-1.285077667E0,-6.478827209E0,2.511776733E0,7.066516043E0
1.066151733E1,-1.333726501E0,-8.062234497E0,2.551444244E0,8.560859723E0
1.067152933E1,-1.393751678E0,-9.802964630E0,2.367027740E0,1.018054417E1
1.068154233E1,-1.446142731E0,-1.163979492E1,1.830842743E0,1.187131584E1
1.069155433E1,-1.663790131E0,-1.419303543E1,-2.827021179E0,1.456717203E1
1.070156733E1,-2.113904114E0,-1.720327560E1,-6.791526947E0,1.861574926E1
1.071157933E1,-2.294877777E0,-1.850002899E1,-4.795577545E0,1.924876881E1
1.072159133E1,-2.100432129E0,-1.878084503E1,-1.522783356E0,1.895918839E1
1.073160433E1,-1.548230438E0,-1.877365997E1,1.402733002E0,1.888954701E1
1.074161633E1,-7.571255493E-1,-1.857592117E1,3.195704498E0,1.886400312E1
1.075162833E1,-1.639091492E-1,-1.727377899E1,4.053271179E0,1.774371196E1
1.076164133E1,-1.034349060E-1,-1.457563980E1,3.331771545E0,1.495194556E1
1.077165333E1,-2.176473999E-1,-1.183918030E1,1.560355225E0,1.194354507E1
1.078166633E1,-4.580474854E-1,-9.723180542E0,-3.778143311E-1,9.741293088E0
1.079167833E1,-9.569599915E-1,-8.026758270E0,-2.175875244E0,8.371323302E0
1.080169033E1,-1.769919434E0,-6.866071930E0,-3.032094727E0,7.711624795E0
1.081170333E1,-2.583477631E0,-6.384822693E0,-2.546354828E0,7.343312631E0
1.082171533E1,-2.960244141E0,-6.263874207E0,-1.354832611E0,7.059372270E0
1.083172833E1,-3.020119629E0,-6.210435333E0,-2.173480225E-1,6.909259712E0
1.084174033E1,-3.112926636E0,-6.305038605E0,5.156776428E-1,7.050513987E0
1.085175233E1,-3.238066406E0,-6.466852112E0,8.334667969E-1,7.280104202E0
1.086176533E1,-3.430566101E0,-6.613696747E0,8.138575745E-1,7.494807041E0
1.087177733E1,-3.859274597E0,-6.948999481E0,5.487588501E-1,7.967667819E0
1.088179033E1,-4.429139557E0,-7.573351135E0,6.212081909E-2,8.773641412E0
1.089180233E1,-5.000501404E0,-8.399483185E0,-1.781295776E-1,9.776914759E0
1.090181433E1,-5.359454956E0,-9.185498657E0,-4.321513367E-1,1.064349086E1
1.091182733E1,-5.339097290E0,-9.872719574E0,-7.661068726E-1,1.125004317E1
1.092183933E1,-4.938380585E0,-1.045949936E1,-7.997868347E-1,1.159432571E1
1.093185233E1,-4.437971191E0,-1.098311050E1,-2.401007080E-1,1.184828903E1
1.094186433E1,-3.943549347E0,-1.137888748E1,5.674699402E-1,1.205623009E1
1.095187633E1,-3.559148712E0,-1.163350800E1,7.318281555E-1,1.218776519E1
1.096188933E1,-3.158132629E0,-1.176328812E1,6.378236389E-1,1.219653918E1
1.097190133E1,-2.456840973E0,-1.145388153E1,9.352551270E-1,1.175168804E1
1.098191433E1,-1.910327454E0,-1.091515182E1,1.386267242E0,1.116743602E1
1.099192633E1,-1.483415222E0,-1.028466293E1,1.798809357E0,1.054564021E1
1.100193833E1,-1.102607117E0,-9.717043304E0,1.975741425E0,9.976984876E0
1.101195133E1,-7.429051208E-1,-9.286388855E0,1.929786987E0,9.513832235E0
1.102196333E1,-3.659889221E-1,-8.970695343E0,1.601220245E0,9.119826155E0
1.103197475E1,1.600172424E-1,-8.841513977E0,1.731898499E-1,8.844657690E0
1.104198775E1,6.545887756E-1,-8.642877045E0,-8.068222046E-2,8.668005520E0
1.105199975E1,1.162482605E0,-8.731193390E0,-5.164260864E-2,8.808392065E0
1.106201275E1,2.875220947E0,-9.024882660E0,-1.453028412E0,9.582624593E0
1.107202475E1,2.416125641E0,-9.764943695E0,-1.505419464E0,1.017143433E1
1.108203675E1,1.737886047E-1,-1.024200165E1,-1.595083008E0,1.036692288E1
1.109204975E1,-1.122515717E0,-1.053479279E1,-9.824070740E-1,1.063987896E1
1.110206175E1,-1.777254181E0,-1.089883575E1,8.442443848E-2,1.104311463E1
1.111207475E1,-2.472857666E0,-1.104029160E1,1.005758514E0,1.135846001E1
1.112208675E1,-3.235072632E0,-1.078312637E1,2.048939209E0,1.144288693E1
1.113209875E1,-3.711831207E0,-1.011207184E1,2.740052032E0,1.111483571E1
1.114211175E1,-3.822002106E0,-9.014853516E0,2.222877502E0,1.004074043E1
1.115212375E1,-3.744912415E0,-7.969876556E0,1.814826050E0,8.990934040E0
1.116213675E1,-3.603606262E0,-7.369774475E0,1.707499237E0,8.379445540E0
1.117214875E1,-3.499722290E0,-7.424859924E0,1.190474396E0,8.294204621E0
1.118216075E1,-3.363056488E0,-7.928562469E0,7.105723572E-1,8.641595041E0
1.119217375E1,-3.079396362E0,-8.506660309E0,5.171745300E-1,9.061645604E0
1.120218575E1,-2.741548920E0,-8.936865692E0,5.444178772E-1,9.363762583E0
1.121219875E1,-2.491718445E0,-9.302854614E0,8.193960571E-1,9.665566444E0
1.122221075E1,-2.427352295E0,-9.735155640E0,1.156195679E0,1.009960806E1
1.123222275E1,-2.348017273E0,-1.026385620E1,1.373394012E0,1.061819855E1
1.124223575E1,-1.963916016E0,-1.077160034E1,1.327589264E0,1.102936232E1
1.125224775E1,-1.436412964E0,-1.102158051E1,9.430389404E-1,1.115472283E1
1.126226075E1,-8.584648132E-1,-1.102068237E1,3.872447205E-1,1.106084808E1
1.127227275E1,-3.126997375E-1,-1.086560486E1,-1.158590698E-1,1.087072092E1
1.128228475E1,1.823208618E-1,-1.064301773E1,-3.748205566E-1,1.065117636E1
1.129229775E1,5.740562439E-1,-1.037911652E1,-2.844085693E-1,1.039886958E1
1.130230975E1,8.586145020E-1,-1.009216324E1,1.257385254E-2,1.012862951E1
1.131232175E1,1.035995636E0,-9.752669220E0,3.396437073E-1,9.813419471E0
1.132233475E1,1.082399139E0,-9.399403839E0,6.104306030E-1,9.481192222E0
1.133234675E1,8.469387817E-1,-9.149124298E0,7.454498291E-1,9.218431329E0
1.134235975E1,-5.987548828E-3,-9.300010529E0,7.339237976E-1,9.328926831E0
1.135237175E1,-8.563691711E-1,-9.592651978E0,5.596861267E-1,9.647050776E0
1.136238375E1,-1.258582764E0,-9.678872681E0,3.423381042E-1,9.766360751E0
1.137239675E1,-1.587598572E0,-9.779762878E0,2.333647156E-1,9.910534308E0
1.138240875E1,-1.887724457E0,-9.870474243E0,2.326162720E-1,1.005205828E1
1.139242175E1,-2.151026917E0,-9.886940002E0,3.126997375E-1,1.012305688E1
1.140243375E1,-2.387235718E0,-9.831255798E0,4.299060059E-1,1.012607052E1
1.141244575E1,-2.607876892E0,-9.704319763E0,5.653742981E-1,1.006451648E1
1.142245875E1,-2.794838104E0,-9.555529175E0,7.063810730E-1,9.980893350E0
1.143247075E1,-2.973117371E0,-9.415719910E0,7.608677673E-1,9.903238262E0
1.144248375E1,-3.125201111E0,-9.324260101E0,7.619155884E-1,9.863529986E0
1.145249575E1,-3.209924927E0,-9.287436676E0,7.165599060E-1,9.852591342E0
1.146250775E1,-3.210523682E0,-9.285640411E0,6.474037170E-1,9.846304471E0
1.147252075E1,-3.025358734E0,-9.350605316E0,5.783972168E-1,9.844854422E0
1.148253275E1,-2.515518951E0,-9.436975708E0,5.206173706E-1,9.780357282E0
1.149254575E1,-2.017205200E0,-9.521400146E0,5.098397827E-1,9.746081991E0
1.150255775E1,-1.785936127E0,-9.622290344E0,5.330415344E-1,9.801131190E0
1.151256975E1,-1.725012817E0,-9.689201202E0,5.866300964E-1,9.859027540E0
1.152258275E1,-1.711540833E0,-9.711355133E0,5.766009521E-1,9.877867138E0
1.153259475E1,-1.680255890E0,-9.699679413E0,5.334906006E-1,9.858582697E0
1.154260775E1,-1.665436707E0,-9.636211395E0,4.782554626E-1,9.790759816E0
1.155261975E1,-1.688189392E0,-9.586664429E0,4.080514526E-1,9.742721605E0
1.156263175E1,-1.840572510E0,-9.546248474E0,3.504212952E-1,9.728379216E0
1.157264475E1,-2.086660767E0,-9.517358551E0,3.077600098E-1,9.748281037E0
1.158265675E1,-2.256407776E0,-9.504335632E0,2.523751831E-1,9.771768780E0
1.159266875E1,-2.350112915E0,-9.513766022E0,2.040257263E-1,9.801857024E0
1.160268175E1,-2.470312958E0,-9.552535400E0,1.847158813E-1,9.868510457E0
1.161269375E1,-2.613115997E0,-9.561965790E0,1.836680603E-1,9.914297703E0
1.162270675E1,-2.702480164E0,-9.541159058E0,1.996847534E-1,9.918517490E0
1.163271875E1,-2.736758881E0,-9.540260925E0,2.157014465E-1,9.927384087E0
1.164273075E1,-2.729723511E0,-9.603130188E0,2.606080627E-1,9.986962322E0
1.165274375E1,-2.668800201E0,-9.680968323E0,3.348536682E-1,1.004767481E1
1.166275575E1,-2.522704010E0,-9.699529724E0,3.926335144E-1,1.002990895E1
1.167276875E1,-2.345622253E0,-9.664502563E0,4.691244507E-1,9.956135360E0
1.168278075E1,-2.146536255E0,-9.623038788E0,5.536985779E-1,9.875073444E0
1.169279275E1,-1.901944885E0,-9.560319214E0,6.200106812E-1,9.767369711E0
1.170280575E1,-1.692081299E0,-9.499994659E0,6.463558960E-1,9.671133005E0
1.171281775E1,-1.522184601E0,-9.488468628E0,6.521937561E-1,9.631896986E0
1.172283075E1,-1.366807709E0,-9.508526917E0,6.520440674E-1,9.628364809E0
1.173284275E1,-1.243763580E0,-9.586664429E0,6.709048462E-1,9.690262949E0
1.174285475E1,-1.189276886E0,-9.709409180E0,6.854246521E-1,9.805958040E0
1.175286775E1,-1.157393188E0,-9.840237122E0,7.144642639E-1,9.933795085E0
1.176287975E1,-1.168470154E0,-9.913734283E0,6.985972595E-1,1.000677211E1
1.177289275E1,-1.211580505E0,-9.910441132E0,6.259982300E-1,1.000383149E1
1.178290475E1,-1.355730743E0,-9.848020935E0,5.209167480E-1,9.954540494E0
1.179291675E1,-1.641037445E0,-9.812694397E0,4.867877197E-1,9.960870319E0
1.180292975E1,-1.911225586E0,-9.734257507E0,4.809498596E-1,9.931760429E0
1.181294175E1,-2.068997498E0,-9.646539917E0,4.599934387E-1,9.876643001E0
1.182295475E1,-2.146835632E0,-9.573940887E0,4.334985352E-1,9.821261036E0
1.183296675E1,-2.175276489E0,-9.531129913E0,4.029620361E-1,9.784510393E0
1.184297875E1,-2.171983337E0,-9.530231781E0,4.064048767E-1,9.783046271E0
1.185299175E1,-2.166744232E0,-9.534423065E0,4.037104797E-1,9.785856422E0
1.186300375E1,-2.138902130E0,-9.544751587E0,3.847000122E-1,9.789033623E0
1.187301575E1,-2.072889404E0,-9.550439758E0,3.739224243E-1,9.779958489E0
1.188302875E1,-1.980531464E0,-9.539213104E0,4.305047607E-1,9.752149808E0
1.189304075E1,-1.848805389E0,-9.479786682E0,4.984634399E-1,9.671241012E0
1.190305375E1,-1.708097992E0,-9.435778198E0,5.520520020E-1,9.605012773E0
1.191306575E1,-1.611548767E0,-9.434730377E0,5.584886169E-1,9.587655410E0
1.192307775E1,-1.569635925E0,-9.486971741E0,4.876858521E-1,9.628303445E0
1.193309075E1,-1.587748260E0,-9.592202911E0,3.424877930E-1,9.728751159E0
1.194310275E1,-1.658551025E0,-9.718540192E0,1.634600830E-1,9.860402333E0
1.195311575E1,-1.764530640E0,-9.827064514E0,6.077362061E-2,9.984410788E0
1.196312775E1,-1.872156830E0,-9.843081207E0,6.242019653E-2,1.001973628E1
1.197313975E1,-1.938468933E0,-9.814191284E0,1.460961914E-1,1.000486664E1
1.198315275E1,-1.946851501E0,-9.746531982E0,2.218386841E-1,9.941545597E0
1.199316475E1,-1.911075897E0,-9.673783264E0,2.713856506E-1,9.864478896E0
1.200317775E1,-1.824106750E0,-9.589508514E0,2.396516418E-1,9.764398184E0
1.201318975E1,-1.740580444E0,-9.541458435E0,1.823208618E-1,9.700633497E0
1.202320175E1,-1.646575928E0,-9.529782715E0,1.504371643E-1,9.672156027E0
1.203321971E1,-1.582658844E0,-9.557624817E0,1.306782532E-1,9.688657181E0
1.204323171E1,-1.529968414E0,-9.622739410E0,1.185534668E-1,9.744330251E0
1.205324471E1,-1.519939270E0,-9.673783264E0,1.305285645E-1,9.793331187E0
1.206325671E1,-1.563798065E0,-9.724078674E0,1.419049072E-1,9.850040988E0
1.207326871E1,-1.619931335E0,-9.739496613E0,1.321751404E-1,9.874180577E0
1.208328171E1,-1.715432739E0,-9.727222137E0,1.212478638E-1,9.878069702E0
1.209329371E1,-1.790426788E0,-9.671388245E0,1.086740112E-1,9.836319876E0
1.210330671E1,-1.879940643E0,-9.611063690E0,1.010398865E-1,9.793718964E0
1.211331871E1,-1.957479401E0,-9.565857697E0,1.200503540E-1,9.764823151E0
1.212333071E1,-2.020648041E0,-9.537117462E0,1.579216003E-1,9.750106011E0
1.213334371E1,-2.062411194E0,-9.517807617E0,1.553768921E-1,9.739935511E0
1.214335571E1,-2.089654541E0,-9.528285828E0,1.275347900E-1,9.755570308E0
1.215336771E1,-2.090402985E0,-9.561965790E0,8.277786255E-2,9.788147249E0
1.216338071E1,-2.061662750E0,-9.580976257E0,3.966751099E-2,9.800363914E0
1.217339271E1,-2.002685394E0,-9.583970032E0,5.987548828E-3,9.790978818E0
1.218340571E1,-1.928439789E0,-9.571396179E0,-8.681945801E-3,9.763738025E0
1.219341771E1,-1.846260681E0,-9.570947113E0,-2.619552612E-2,9.747430089E0
1.220342971E1,-1.772763519E0,-9.589957581E0,-3.442840576E-2,9.752495179E0
1.221344271E1,-1.717977448E0,-9.616003418E0,-1.907034302E-1,9.770124669E0
1.222345471E1,-1.678459625E0,-9.597891083E0,-5.554948425E-1,9.759370598E0
1.223346771E1,-1.710043945E0,-9.566755829E0,-8.060737610E-1,9.751759959E0
1.224347971E1,-1.812580719E0,-9.637708282E0,-7.961943054E-1,9.838942787E0
1.225349171E1,-1.995500336E0,-9.794881439E0,-5.046006775E-1,1.000881341E1
1.226350471E1,-2.100731506E0,-9.907746735E0,-1.691482544E-2,1.012802075E1
1.227351671E1,-1.987417145E0,-9.866732025E0,2.528242493E-1,1.006807568E1
1.228352971E1,-1.811233521E0,-9.748328247E0,8.981323242E-4,9.915163704E0
1.229354171E1,-1.821562042E0,-9.703721008E0,-4.601431274E-1,9.883927427E0
1.230355371E1,-2.025438080E0,-9.660460968E0,-2.010319519E-1,9.872553843E0
1.231356671E1,-2.376158752E0,-9.389973450E0,6.545887756E-1,9.708049148E0
1.232357871E1,-2.627785492E0,-9.042994995E0,1.229842529E0,9.497027310E0
1.233359171E1,-2.600542145E0,-8.879385223E0,1.385369110E0,9.355509017E0
1.234360371E1,-2.348915405E0,-8.925040283E0,1.274150391E0,9.316501857E0
1.235361571E1,-2.051334229E0,-9.113947449E0,1.012344818E0,9.396640477E0
1.236362871E1,-1.971550140E0,-9.260193329E0,7.945477295E-1,9.501026078E0
1.237364071E1,-2.089355164E0,-9.336235199E0,4.939727783E-1,9.579911367E0
1.238365271E1,-2.256707153E0,-9.455088043E0,4.206253052E-2,9.720760584E0
1.239366571E1,-2.281106415E0,-9.675878906E0,-5.228627014E-1,9.954871395E0
1.240367771E1,-2.117047577E0,-9.699080658E0,-7.813751221E-1,9.958142554E0
1.241369071E1,-1.981878662E0,-9.408983917E0,-5.881269836E-1,9.633416566E0
1.242370271E1,-1.895358582E0,-9.317823486E0,-3.167413330E-1,9.513913167E0
1.243371471E1,-1.811083832E0,-9.360484772E0,-1.125659180E-1,9.534745455E0
1.244372771E1,-1.685345306E0,-9.342222748E0,7.349716187E-2,9.493309039E0
1.245373971E1,-1.558558960E0,-9.086704102E0,2.228865051E-1,9.222091729E0
1.246375271E1,-1.431622925E0,-8.904383240E0,2.682421875E-1,9.022723477E0
1.247376471E1,-1.371597748E0,-8.878487091E0,2.366578674E-1,8.986924967E0
1.248377671E1,-1.366059265E0,-8.914861450E0,1.320254517E-1,9.019883775E0
1.249378971E1,-1.422042847E0,-9.021739197E0,6.017486572E-2,9.133323875E0
1.250380171E1,-1.491348724E0,-9.117689667E0,1.125659180E-1,9.239537703E0
1.251381471E1,-1.525926819E0,-9.128018188E0,1.758842468E-1,9.256354789E0
1.252382671E1,-1.527423706E0,-9.042396240E0,2.586621094E-1,9.174140779E0
1.253383871E1,-1.567839661E0,-8.824299774E0,4.077520752E-1,8.971769584E0
1.254385171E1,-1.646875305E0,-8.582253113E0,5.092410278E-1,8.753661702E0
1.255386371E1,-1.641935577E0,-8.378526764E0,3.857478333E-1,8.546605441E0
1.256387671E1,-1.519939270E0,-8.192613373E0,-1.305285645E-1,8.333436684E0
1.257388871E1,-1.306333466E0,-8.022117920E0,-7.604187012E-1,8.163278731E0
1.258390071E1,-1.078207855E0,-7.880662079E0,-1.322200470E0,8.063223987E0
1.259391371E1,-8.831634521E-1,-7.670948181E0,-1.810634766E0,7.931066885E0
1.260392571E1,-7.107220459E-1,-7.282955017E0,-1.940414886E0,7.570453721E0
1.261393871E1,-5.819897461E-1,-6.783294067E0,-1.815125427E0,7.046025176E0
1.262395071E1,-4.782554626E-1,-6.211632843E0,-1.944755859E0,6.526498772E0
1.263396271E1,-5.105882263E-1,-5.579497375E0,-2.242786102E0,6.035029478E0
1.264397571E1,-7.562274170E-1,-4.920268250E0,-2.173480225E0,5.431844608E0
1.265398771E1,-1.071621552E0,-4.277804260E0,-1.753154297E0,4.745685622E0
1.266400071E1,-1.238225098E0,-3.875291290E0,-1.403481445E0,4.303585034E0
1.267401271E1,-1.176852722E0,-3.692820740E0,-1.293759613E0,4.086039804E0
1.268402471E1,-8.987310791E-1,-3.746409302E0,-1.449286194E0,4.116276312E0
1.269403771E1,-4.590953064E-1,-3.908971252E0,-1.833836517E0,4.342094094E0
1.270404971E1,-4.834945679E-2,-4.304448853E0,-2.429747314E0,4.943105259E0
1.271406171E1,2.818638611E-1,-4.818180542E0,-3.023263092E0,5.695123414E0
1.272407471E1,5.727090454E-1,-5.263504486E0,-3.347339172E0,6.263956789E0
1.273408671E1,7.767347717E-1,-5.710025940E0,-2.894830170E0,6.448856864E0
1.274409971E1,8.255332947E-1,-6.332132263E0,-2.285746765E0,6.782480556E0
1.275411171E1,9.412426758E-1,-7.348967743E0,-2.201921082E0,7.729276881E0
1.276412371E1,1.095122681E0,-8.475525055E0,-1.169068909E0,8.625574807E0
1.277413671E1,1.390009460E0,-9.813442841E0,8.190966797E-1,9.945185069E0
1.278414871E1,1.978435822E0,-1.190504333E1,2.482288055E0,1.232095853E1
1.279416171E1,2.880010986E0,-1.478310837E1,3.929179230E0,1.556512787E1
1.280417371E1,4.079317017E0,-1.769949371E1,4.809648285E0,1.878950829E1
1.281418571E1,5.621260529E0,-2.049328400E1,3.858526154E0,2.159771939E1
1.282419871E1,7.295528870E0,-2.331132385E1,7.429051208E-1,2.443756267E1
1.283421071E1,8.928183746E0,-2.583312973E1,-2.869383087E0,2.748265664E1
1.284422371E1,1.019904099E1,-2.731205429E1,-4.487967224E0,2.949763713E1
1.285423571E1,1.103460342E1,-2.764107010E1,-3.934867401E0,3.002123266E1
1.286424771E1,1.103445374E1,-2.632470749E1,-2.539469147E0,2.865655766E1
1.287426071E1,8.219856720E0,-2.370949585E1,-1.445094910E0,2.513552341E1
1.288427271E1,4.966971130E0,-2.240076736E1,-1.547332306E0,2.299694367E1
1.289428571E1,3.573369141E0,-2.254491760E1,-2.448458405E0,2.295729133E1
1.290429771E1,3.230432281E0,-2.326971039E1,-2.129771118E0,2.358921447E1
1.291430971E1,3.413651276E0,-2.394330963E1,7.604187012E-2,2.418555092E1
1.292432271E1,3.449875946E0,-2.422367661E1,9.059161377E-1,2.448486954E1
1.293433471E1,3.075654144E0,-2.423265793E1,-1.152603149E-2,2.442706473E1
1.294434771E1,2.908302155E0,-2.444087494E1,-2.011517029E0,2.469535968E1
1.295435971E1,2.776725769E0,-2.283920563E1,-8.258326721E-1,2.302219623E1
1.296437171E1,2.481090546E0,-2.097363510E1,-5.319937134E-1,2.112657561E1
1.297438471E1,2.159110107E0,-1.960143860E1,-7.866142273E-1,1.973567616E1
1.298439671E1,1.918560333E0,-1.775517792E1,-9.265731812E-1,1.788255447E1
1.299440971E1,1.996099091E0,-1.566028427E1,-1.235530701E0,1.583525974E1
1.300442171E1,2.240989838E0,-1.278072235E1,-1.077309723E0,1.302034929E1
1.301443371E1,2.233505402E0,-9.853260040E0,-7.605683899E-1,1.013181840E1
1.302444671E1,1.981728973E0,-7.479196930E0,-1.993853760E-1,7.739857296E0
1.303445437E1,1.666783905E0,-5.429958344E0,3.067121887E-1,5.688293994E0
1.304446637E1,1.375339966E0,-3.810625763E0,9.909393311E-1,4.170658160E0
1.305447937E1,1.166224823E0,-2.596650238E0,1.595831451E0,3.263334310E0
1.306449138E1,9.828561401E-1,-1.543889465E0,1.697470093E0,2.496198227E0
1.307450437E1,7.225474548E-1,-6.352789307E-1,1.420096893E0,1.715321932E0
1.308451638E1,3.996688843E-1,8.711883545E-2,1.024319916E0,1.102976064E0
1.309452837E1,1.450483704E-1,6.340814209E-1,4.655319214E-1,7.998863969E-1
1.310454137E1,-1.437011719E-2,8.669970703E-1,3.394940186E-1,9.312070709E-1
1.311455337E1,-6.721023560E-2,7.183561707E-1,3.866459656E-1,8.185645401E-1
1.312456637E1,-1.098715210E-1,5.134323120E-1,1.064286804E-1,5.357345930E-1
1.313457838E1,-2.028282166E-1,3.939807129E-1,-1.519340515E-1,4.684485495E-1
1.314459037E1,-2.872526550E-1,3.791615295E-1,-1.799258423E-1,5.085772921E-1
1.315460338E1,-3.376977539E-1,4.219725037E-1,-1.475930786E-1,5.602537672E-1
1.316461537E1,-3.847000122E-1,4.315525818E-1,-1.375639343E-1,5.942689343E-1
1.317462837E1,-4.248165894E-1,4.083508301E-1,-7.289840698E-2,5.937454949E-1
1.318464037E1,-4.960684204E-1,3.628454590E-1,1.661544800E-2,6.148306905E-1
1.319465238E1,-7.229965210E-1,3.838018799E-1,1.631607056E-1,8.346551792E-1
1.320466538E1,-9.846524048E-1,4.757107544E-1,1.832189941E-1,1.108787752E0
1.321467737E1,-1.139430542E0,5.445675659E-1,3.712280273E-1,1.316307731E0
1.322469038E1,-1.221909027E0,5.578898621E-1,6.297404480E-1,1.483534900E0
1.323470237E1,-1.526974640E0,1.048719177E0,1.923350372E0,2.670344569E0
1.324471438E1,-1.926344147E0,2.103725281E0,4.519701233E0,5.344544982E0
1.325472737E1,-1.704655151E0,1.276395721E0,2.095342712E0,2.987556912E0
1.326473938E1,-1.765877838E0,1.428629150E0,2.263143768E0,3.206419421E0
1.327475137E1,-1.586700439E0,1.451830902E0,2.051633606E0,2.972310836E0
1.328476437E1,-1.371747437E0,1.348695374E0,1.527872772E0,2.456637020E0
1.329477637E1,-1.086590424E0,1.485211487E0,1.177451477E0,2.184702243E0
1.330478937E1,-7.946974182E-1,1.729802856E0,7.464976501E-1,2.044754423E0
1.331480138E1,-5.536985779E-1,1.799108734E0,3.876937866E-1,1.921895113E0
1.332481337E1,-3.305126953E-1,1.826950836E0,1.947450256E-1,1.866792336E0
1.333482638E1,-1.552272034E-1,1.919009399E0,-6.436614990E-3,1.925288028E0
1.334483837E1,-3.218307495E-2,2.035467224E0,-3.065625000E-1,2.058675093E0
1.335485137E1,9.864486694E-2,2.307002563E0,-7.638615417E-1,2.432175177E0
1.336486337E1,2.258802795E-1,2.701132965E0,-1.190025330E0,2.960287398E0
1.337487537E1,3.052153015E-1,2.926264801E0,-1.376986542E0,3.248426389E0
1.338488838E1,-2.058219910E-1,2.458637238E0,-1.114881592E0,2.707438037E0
1.339490037E1,-1.451531525E0,1.144969025E0,-3.153941345E-1,1.875465621E0
1.340491338E1,-2.841241608E0,-1.182540894E0,2.296224976E-1,3.086062755E0
1.341492537E1,-3.867208099E0,-6.240522766E0,-2.861299896E0,7.879496175E0
1.342493738E1,-5.169050903E0,-2.012564850E1,-1.419602921E1,2.516521528E1
1.343495037E1,-5.094356232E0,-1.381671799E1,-5.928571472E0,1.587457467E1
1.344496237E1,-3.842060394E0,-1.279958313E1,-3.578159180E0,1.383452130E1
1.345497538E1,-3.457809448E-1,-1.959919327E1,-8.684789886E0,2.143999805E1
1.346498737E1,8.725355530E-1,-2.308409637E1,-1.300226166E1,2.650840682E1
1.347499938E1,-1.667831726E0,-2.340697495E1,-1.236324051E1,2.652391100E1
1.348501237E1,-3.514990540E0,-2.418805069E1,-9.630972290E0,2.627113591E1
1.349502438E1,-2.917433167E0,-2.694382004E1,-7.213349762E0,2.804484390E1
1.350503737E1,-1.296304321E-1,-2.742506927E1,-5.147196350E0,2.790420863E1
1.351504937E1,2.368374939E0,-2.258997391E1,-3.543132019E0,2.298847332E1
1.352506137E1,3.016527100E0,-2.273247757E1,-1.603465576E0,2.298773747E1
1.353507437E1,3.930825806E0,-1.701197342E1,-1.237925720E-1,1.746064019E1
1.354508638E1,5.256319427E0,-1.786519913E1,-1.137634277E-2,1.862241561E1
1.355509937E1,5.469326477E0,-2.628144745E1,1.886676636E0,2.691073319E1
1.356511138E1,5.620362396E0,-2.999552399E1,2.949316864E0,3.065971955E1
1.357512337E1,7.697742462E0,-3.357742538E1,2.205363922E0,3.451901454E1
1.358513637E1,1.005653732E1,-3.391227905E1,1.389111328E0,3.539924072E1
1.359514837E1,1.126542343E1,-2.985781036E1,4.125421143E-1,3.191502461E1
1.360516038E1,1.135403915E1,-2.368524628E1,-9.102571106E-1,2.628181242E1
1.361517338E1,1.014500336E1,-1.827085556E1,-1.813329163E0,2.097697353E1
1.362518537E1,8.567134552E0,-1.440679092E1,-2.426154785E0,1.693628195E1
1.363519838E1,7.205715637E0,-1.160027710E1,-2.709216156E0,1.392223469E1
1.364521037E1,5.966592407E0,-9.310189362E0,-2.780617676E0,1.140226669E1
1.365522238E1,4.849016418E0,-7.482789459E0,-2.323168945E0,9.214239647E0
1.366523537E1,3.754193115E0,-6.209088135E0,-1.672322388E0,7.446032741E0
1.367524738E1,2.706521759E0,-5.315296783E0,-1.407073975E0,6.128417177E0
1.368526038E1,1.804347839E0,-4.635560303E0,-1.406175842E0,5.169276637E0
1.369527237E1,1.012195129E0,-4.094136200E0,-1.279090118E0,4.407103554E0
1.370528437E1,4.873864746E-1,-3.781885529E0,-9.551637268E-1,3.930972077E0
1.371529737E1,2.137554932E-1,-3.576512604E0,-6.655160522E-1,3.644179665E0
1.372530938E1,-1.646575928E-3,-3.344944153E0,-5.158273315E-1,3.384483998E0
1.373532237E1,-2.101629639E-1,-2.994672546E0,-6.474037170E-1,3.071052540E0
1.374533438E1,-4.822970581E-1,-2.439626770E0,-1.064735870E0,2.705189772E0
1.375534637E1,-8.301736450E-1,-1.728605347E0,-1.644779663E0,2.526373857E0
1.376535937E1,-1.122815094E0,-1.099463654E0,-2.111808472E0,2.632350486E0
1.377537137E1,-1.203647003E0,-6.456074524E-1,-2.235151978E0,2.619442585E0
1.378538437E1,-1.179846497E0,-3.794609070E-1,-2.201022949E0,2.525971171E0
1.379539638E1,-9.711804199E-1,-6.843768311E-1,-2.048639832E0,2.368224697E0
1.380540837E1,-9.196875000E-1,-8.904981995E-1,-1.738185425E0,2.158726641E0
1.381542138E1,-9.113049316E-1,-1.363215179E0,-1.869462433E0,2.486709089E0
1.382543337E1,-7.508386230E-1,-2.355651398E0,-1.584604797E0,2.936634895E0
1.383544637E1,-7.511380005E-1,-3.471131744E0,-1.186283112E0,3.744359959E0
1.384545837E1,-8.487350464E-1,-4.562961273E0,-8.418493652E-1,4.716956340E0
1.385547037E1,-9.837542725E-1,-5.702691193E0,-3.206332397E-1,5.795797183E0
1.386548338E1,-1.088536377E0,-7.509883118E0,4.311035156E-2,7.588485645E0
1.387549537E1,-1.475930786E0,-9.782157898E0,5.739065552E-1,9.909508240E0
1.388550738E1,-2.120640106E0,-1.225845840E1,1.461560669E0,1.252609582E1
1.389552037E1,-2.693798218E0,-1.443927338E1,2.095043335E0,1.483706073E1
1.390553238E1,-3.330274658E0,-1.651560562E1,2.334245911E0,1.700895830E1
1.391554537E1,-3.714226227E0,-1.828881821E1,2.420915680E0,1.881853290E1
1.392555737E1,-3.906426544E0,-1.925535828E1,2.102827148E0,1.975982977E1
1.393556937E1,-3.853736115E0,-1.918036423E1,8.493338013E-1,1.958210974E1
1.394558237E1,-3.316952362E0,-1.722108856E1,-1.253942413E0,1.758238993E1
1.395559438E1,-2.675835571E0,-1.398541718E1,-2.722987518E0,1.449712560E1
1.396560737E1,-2.380649414E0,-1.141990219E1,-3.093766479E0,1.206868049E1
1.397561938E1,-2.298021240E0,-9.575587463E0,-3.039579163E0,1.030591182E1
1.398563137E1,-2.270927582E0,-8.177045746E0,-2.881358185E0,8.962333078E0
1.399564437E1,-2.204465790E0,-7.127428436E0,-2.588117981E0,7.896724651E0
1.400565637E1,-2.009122009E0,-6.409221954E0,-2.129920807E0,7.046365017E0
1.401566937E1,-1.584305420E0,-6.070476379E0,-1.476529541E0,6.445218896E0
1.402568138E1,-1.027164001E0,-6.153254242E0,-7.405101013E-1,6.282193794E0
1.403569275E1,-5.536985779E-1,-6.739734650E0,1.901046753E-2,6.762467498E0
1.404570575E1,-3.134481812E-1,-7.616311798E0,5.801934814E-1,7.644807365E0
1.405571775E1,-1.848655701E-1,-8.457712097E0,6.589297485E-1,8.485355479E0
1.406573075E1,-4.745132446E-2,-9.170080719E0,1.721420288E-1,9.171819062E0
1.407574275E1,8.786727905E-2,-9.764494629E0,-7.970924377E-1,9.797368645E0
1.408575475E1,5.972579956E-2,-1.040635986E1,-1.647623749E0,1.053615474E1
1.409576775E1,-4.034111023E-1,-1.126796814E1,-1.531614990E0,1.137873855E1
1.410577975E1,-1.121617584E0,-1.202958435E1,-6.730004883E-1,1.210048988E1
1.411579275E1,-1.652114410E0,-1.219379288E1,3.727249146E-2,1.230526131E1
1.412580475E1,-1.796713715E0,-1.174622360E1,4.519102478E-1,1.189143271E1
1.413581675E1,-1.674867096E0,-1.100301910E1,6.554869080E-1,1.114904804E1
1.414582975E1,-1.460812225E0,-1.023496628E1,7.834707642E-1,1.036833321E1
1.415584175E1,-1.281036072E0,-9.634714508E0,8.604107666E-1,9.757514220E0
1.416585375E1,-1.196012878E0,-9.286688232E0,9.434880066E-1,9.410802025E0
1.417586675E1,-1.120869141E0,-9.058113556E0,1.091829529E0,9.192271784E0
1.418587875E1,-1.041085052E0,-8.904233551E0,1.235680389E0,9.049648570E0
1.419589175E1,-9.933343506E-1,-8.829538879E0,1.269959106E0,8.975537092E0
1.420590375E1,-9.909393311E-1,-8.826395416E0,1.117575989E0,8.951882087E0
1.421591575E1,-1.039887543E0,-8.902287598E0,8.500822449E-1,9.003040064E0
1.422592875E1,-1.073567505E0,-8.969198456E0,4.372407532E-1,9.043796084E0
1.423594075E1,-1.027463379E0,-9.020391998E0,-2.987786865E-1,9.083634818E0
1.424595375E1,-8.463400269E-1,-9.189240875E0,-1.466350708E0,9.343908374E0
1.425596575E1,-7.333250427E-1,-9.559121704E0,-2.947071533E0,1.002994536E1
1.426597775E1,-1.010398865E0,-1.016970200E1,-4.041595459E0,1.098991530E1
1.427599075E1,-1.594933319E0,-1.074899734E1,-4.009113007E0,1.158264837E1
1.428600275E1,-2.052382050E0,-1.096380066E1,-3.124153290E0,1.158350253E1
1.429601575E1,-2.180964661E0,-1.079599960E1,-1.712139587E0,1.114637323E1
1.430602775E1,-1.965712280E0,-1.041983185E1,-2.769241333E-2,1.060366387E1
1.431603975E1,-1.511407013E0,-1.000908600E1,1.487606506E0,1.023128178E1
1.432605275E1,-9.931846619E-1,-9.547595673E0,2.347568207E0,9.882007660E0
1.433606475E1,-5.891748047E-1,-9.062304840E0,2.512375488E0,9.422554142E0
1.434607775E1,-4.405339050E-1,-8.812025299E0,2.211501160E0,9.095965994E0
1.435608975E1,-4.800517273E-1,-8.784183197E0,1.741029510E0,8.967915469E0
1.436610175E1,-5.876779175E-1,-8.853489075E0,1.131497040E0,8.944826420E0
1.437611475E1,-7.068301392E-1,-9.021439819E0,4.809498596E-1,9.061859524E0
1.438612675E1,-8.093669128E-1,-9.278904419E0,-7.813751221E-2,9.314464423E0
1.439613875E1,-8.744815063E-1,-9.580826569E0,-4.150868225E-1,9.629602936E0
1.440615175E1,-9.054670715E-1,-9.995913391E0,-5.310955811E-1,1.005088144E1
1.441616375E1,-9.312135315E-1,-1.035965698E1,-5.400769043E-1,1.041543732E1
1.442617675E1,-9.187893677E-1,-1.052461395E1,-5.415737915E-1,1.057851478E1
1.443618875E1,-8.833131409E-1,-1.049497559E1,-6.333329773E-1,1.055110730E1
1.444620075E1,-9.095086670E-1,-1.032956955E1,-8.270301819E-1,1.040246086E1
1.445621375E1,-1.043180695E0,-1.008318192E1,-9.744735718E-1,1.018373125E1
1.446622575E1,-1.293609924E0,-9.748178558E0,-9.193881226E-1,9.876521977E0
1.447623875E1,-1.688339081E0,-9.312135315E0,-7.059320068E-1,9.490241987E0
1.448625075E1,-1.892813873E0,-9.253008270E0,-6.963519287E-1,9.470259364E0
1.449626275E1,-1.897304535E0,-9.228758698E0,-5.813909912E-1,9.439691048E0
1.450627575E1,-1.921105042E0,-9.131461029E0,-3.942800903E-1,9.339683180E0
1.451628775E1,-1.903591461E0,-9.216334534E0,-2.531236267E-1,9.414273963E0
1.452630075E1,-1.687740326E0,-9.543404388E0,3.906875610E-2,9.691571653E0
1.453631275E1,-1.375639343E0,-9.855056305E0,4.553530884E-1,9.961017258E0
1.454632475E1,-1.085392914E0,-9.947264557E0,7.466473389E-1,1.003412339E1
1.455633775E1,-8.044271851E-1,-9.837243347E0,8.595126343E-1,9.907432651E0
1.456634975E1,-4.439767456E-1,-9.755064240E0,1.010398865E0,9.817295938E0
1.457636275E1,-1.966909790E-1,-9.667346649E0,1.014889526E0,9.722462616E0
1.458637475E1,-1.076261902E-1,-9.609117737E0,7.917036438E-1,9.642277829E0
1.459638675E1,-6.750961304E-2,-9.641899567E0,6.069877625E-1,9.661222435E0
1.460639975E1,-8.592132568E-2,-9.722132721E0,4.150868225E-1,9.731369081E0
1.461641175E1,-2.097138977E-1,-9.813293152E0,1.374142456E-1,9.816495560E0
1.462642475E1,-3.812571716E-1,-9.925260315E0,-1.633103943E-1,9.933922671E0
1.463643675E1,-5.322930908E-1,-1.002345612E1,-3.394940186E-1,1.004331940E1
1.464644875E1,-6.923103333E-1,-1.006207581E1,-4.031117249E-1,1.009391709E1
1.465646175E1,-8.659492493E-1,-9.992769928E0,-4.043092346E-1,1.003836565E1
1.466647375E1,-1.039288788E0,-9.872569885E0,-3.362008667E-1,9.932813717E0
1.467648575E1,-1.187480621E0,-9.766889648E0,-1.778302002E-1,9.840420073E0
1.468649875E1,-1.284778290E0,-9.673034821E0,8.352630615E-2,9.758341792E0
1.469651075E1,-1.294508057E0,-9.592053223E0,2.633024597E-1,9.682590786E0
1.470652375E1,-1.270108795E0,-9.563612366E0,3.218307495E-1,9.652949439E0
1.471653575E1,-1.271905060E0,-9.598938904E0,3.052153015E-1,9.687648164E0
1.472654775E1,-1.272803192E0,-9.646390228E0,1.724414062E-1,9.731526522E0
1.473656075E1,-1.205592957E0,-9.655670929E0,-2.200424194E-2,9.730669024E0
1.474657275E1,-1.071621552E0,-9.649982758E0,-2.209405518E-1,9.711815211E0
1.475658575E1,-8.767268372E-1,-9.667047272E0,-3.122506714E-1,9.711743066E0
1.476659775E1,-7.053332520E-1,-9.703721008E0,-3.224295044E-1,9.734662664E0
1.477660975E1,-5.899232483E-1,-9.756710815E0,-2.788700867E-1,9.778506220E0
1.478662275E1,-5.176235962E-1,-9.799671478E0,-1.317260742E-1,9.814216577E0
1.479663475E1,-4.944218445E-1,-9.810598755E0,1.945953369E-3,9.823049663E0
1.480664775E1,-5.325924683E-1,-9.804910583E0,8.981323242E-2,9.819775593E0
1.481665975E1,-6.245013428E-1,-9.820328522E0,8.442443848E-2,9.840527511E0
1.482667175E1,-7.634124756E-1,-9.831405487E0,-3.502716064E-2,9.861062791E0
1.483668475E1,-8.888516235E-1,-9.829309845E0,-1.902543640E-1,9.871250476E0
1.484669675E1,-9.755213928E-1,-9.830657043E0,-3.426374817E-1,9.884880391E0
1.485670975E1,-1.015488281E0,-9.811496887E0,-4.334985352E-1,9.873429424E0
1.486672175E1,-1.036295013E0,-9.761800232E0,-4.333488464E-1,9.826212004E0
1.487673375E1,-1.031954041E0,-9.680219879E0,-3.876937866E-1,9.742786692E0
1.488674675E1,-9.795629883E-1,-9.620494080E0,-3.284170532E-1,9.675810444E0
1.489675875E1,-8.931925964E-1,-9.614955597E0,-2.769241333E-1,9.660323552E0
1.490677075E1,-7.872129822E-1,-9.655371552E0,-2.432441711E-1,9.690462930E0
1.491678375E1,-6.768923950E-1,-9.728719025E0,-2.329156494E-1,9.755019573E0
1.492679575E1,-5.983058167E-1,-9.787097626E0,-2.549198914E-1,9.808681560E0
1.493680875E1,-5.613327026E-1,-9.822873230E0,-2.809657288E-1,9.842909866E0
1.494682075E1,-5.535488892E-1,-9.820627899E0,-2.929408264E-1,9.840577373E0
1.495683275E1,-5.563929749E-1,-9.819131012E0,-2.989283752E-1,9.839424025E0
1.496684575E1,-5.689668274E-1,-9.803413696E0,-3.073109436E-1,9.824717979E0
1.497685775E1,-5.939648438E-1,-9.779613190E0,-3.532653809E-1,9.804000449E0
1.498687075E1,-5.550457764E-1,-9.773625641E0,-3.450325012E-1,9.795452078E0
1.499688275E1,-4.757107544E-1,-9.765542450E0,-3.332070923E-1,9.782798528E0
1.500689475E1,-5.393284607E-1,-9.705517273E0,-3.888912964E-1,9.728266915E0
1.501690775E1,-6.240522766E-1,-9.698182526E0,-4.502636719E-1,9.728665012E0
1.502691975E1,-6.623725891E-1,-9.752968597E0,-4.661306763E-1,9.786542378E0
1.503693696E1,-7.262896729E-1,-9.776020660E0,-4.439767456E-1,9.813011362E0
1.504694896E1,-7.688012695E-1,-9.799222412E0,-3.908372498E-1,9.837101658E0
1.505696096E1,-7.782316589E-1,-9.802216187E0,-3.649411011E-1,9.839830725E0
1.506697396E1,-7.682025146E-1,-9.774673462E0,-3.754193115E-1,9.811998576E0
1.507698596E1,-7.177574158E-1,-9.757309570E0,-4.125421143E-1,9.792367270E0
1.508699896E1,-6.879693604E-1,-9.752070465E0,-4.605921936E-1,9.787151034E0
1.509701096E1,-7.002438354E-1,-9.745933228E0,-4.930746460E-1,9.783490099E0
1.510702296E1,-7.590715027E-1,-9.745783539E0,-4.933740234E-1,9.787742552E0
1.511703596E1,-8.217910767E-1,-9.738149414E0,-4.710704041E-1,9.784109664E0
1.512704796E1,-8.901988220E-1,-9.715396729E0,-4.572990417E-1,9.766806538E0
1.513706096E1,-9.375004578E-1,-9.709558868E0,-4.544549561E-1,9.765294150E0
1.514707296E1,-9.252259827E-1,-9.767787781E0,-4.438270569E-1,9.821542837E0
1.515708496E1,-9.190887451E-1,-9.737550659E0,-4.096980286E-1,9.789405980E0
1.516709796E1,-9.367520142E-1,-9.707912292E0,-4.082011414E-1,9.761541558E0
1.517710996E1,-9.521699524E-1,-9.718689880E0,-4.194277954E-1,9.774225304E0
1.518712196E1,-9.407936096E-1,-9.717791748E0,-4.141886902E-1,9.772007027E0
1.519713496E1,-9.219328308E-1,-9.711504822E0,-4.119433594E-1,9.763861090E0
1.520714696E1,-9.078620911E-1,-9.723479919E0,-3.981719971E-1,9.773884400E0
1.521715996E1,-8.687933350E-1,-9.742340698E0,-3.707789612E-1,9.788027441E0
1.522717196E1,-8.330177307E-1,-9.751920776E0,-3.465293884E-1,9.793567276E0
1.523718396E1,-7.809260559E-1,-9.758656769E0,-3.424877930E-1,9.795842247E0
1.524719696E1,-7.210505676E-1,-9.839638367E0,-2.947370911E-1,9.870423854E0
1.525720896E1,-7.857160950E-1,-9.846673737E0,-3.300636292E-1,9.883484985E0
1.526722196E1,-9.132508850E-1,-9.720336456E0,-3.787124634E-1,9.770485716E0
1.527723396E1,-9.232800293E-1,-9.587113495E0,-3.745211792E-1,9.638747703E0
1.528724596E1,-8.357121277E-1,-9.465266876E0,-3.589535522E-1,9.508866360E0
1.529725896E1,-6.625222778E-1,-9.399254150E0,-3.231779480E-1,9.428115312E0
1.530727096E1,-4.572990417E-1,-9.397457886E0,-3.164419556E-1,9.413897845E0
1.531728396E1,-2.736309814E-1,-9.403295746E0,-4.087998962E-1,9.416154319E0
1.532729596E1,-1.865121460E-1,-9.404343567E0,-4.806504822E-1,9.418465352E0
1.533730796E1,-1.386117554E-1,-9.394763489E0,-4.971162415E-1,9.408927611E0
1.534732096E1,-1.065783691E-1,-9.400751038E0,-4.550537109E-1,9.412361707E0
1.535733296E1,-6.451583862E-2,-9.475146332E0,-3.749702454E-1,9.482782450E0
1.536734496E1,7.634124756E-3,-9.581874390E0,-2.751278687E-1,9.585826539E0
1.537735796E1,9.235794067E-2,-9.693242798E0,-1.453477478E-1,9.694772400E0
1.538736996E1,1.591191101E-1,-9.827363892E0,-4.520599365E-2,9.828755950E0
1.539738296E1,2.058219910E-1,-9.952653351E0,2.649490356E-2,9.954816593E0
1.540739496E1,2.380050659E-1,-1.002525238E1,5.852828979E-2,1.002824797E1
1.541740696E1,2.553689575E-1,-1.005983047E1,4.625381470E-2,1.006317753E1
1.542741996E1,2.375559998E-1,-1.008647507E1,-1.916015625E-2,1.008929032E1
1.543743196E1,1.701960754E-1,-1.012674133E1,-1.365161133E-1,1.012909144E1
1.544744496E1,4.879852295E-2,-1.017149826E1,-2.718347168E-1,1.017524704E1
1.545745696E1,-1.600172424E-1,-1.021460861E1,-3.743714905E-1,1.022271924E1
1.546746896E1,-4.352947998E-1,-1.022329056E1,-4.105961609E-1,1.024078808E1
1.547748196E1,-7.285350037E-1,-1.015488281E1,-3.855981445E-1,1.018828220E1
1.548749396E1,-1.016685791E0,-1.002016296E1,-2.709365845E-1,1.007525297E1
1.549750696E1,-1.252445526E0,-9.802216187E0,-1.375639343E-1,9.882863239E0
1.550751896E1,-1.435814209E0,-9.602681122E0,-7.619155884E-2,9.709729776E0
1.551753096E1,-1.583856354E0,-9.464518433E0,-8.158035278E-2,9.596476721E0
1.552754396E1,-1.729054413E0,-9.345964966E0,-1.137634277E-1,9.505242365E0
1.553755596E1,-1.895208893E0,-9.278605042E0,-1.341210938E-1,9.471130700E0
1.554756896E1,-2.039209442E0,-9.183403015E0,-1.160087585E-1,9.407801237E0
1.555758096E1,-2.185455322E0,-9.043294373E0,-4.984634399E-2,9.303755840E0
1.556759296E1,-2.319576416E0,-8.871002655E0,4.580474854E-2,9.169363169E0
1.557760596E1,-2.403252411E0,-8.660240936E0,1.284329224E-1,8.988430911E0
1.558761796E1,-2.412533112E0,-8.466543732E0,1.697470093E-1,8.805196921E0
1.559763096E1,-2.412383423E0,-8.288563843E0,2.438429260E-1,8.635933286E0
1.560764296E1,-2.438878326E0,-8.125552826E0,3.035687256E-1,8.489104204E0
1.561765496E1,-2.460134125E0,-8.030051422E0,2.284249878E-1,8.401557220E0
1.562766796E1,-2.427052917E0,-7.983797607E0,6.900650024E-2,8.344841041E0
1.563767996E1,-2.292183380E0,-7.972421265E0,-1.962419128E-1,8.297717539E0
1.564769196E1,-2.093696136E0,-8.092920685E0,-6.102809143E-1,8.381609125E0
1.565770496E1,-1.860930176E0,-8.367150421E0,-1.036594391E0,8.634048600E0
1.566771696E1,-1.635798340E0,-8.520581360E0,-1.343605957E0,8.779602490E0
1.567772996E1,-1.424437866E0,-8.482410736E0,-1.468146973E0,8.725581394E0
1.568774196E1,-1.174158325E0,-8.408015442E0,-1.617087250E0,8.642241759E0
1.569775396E1,-9.412426758E-1,-8.264613647E0,-1.854343872E0,8.522227861E0
1.570776696E1,-7.180567932E-1,-8.054001617E0,-2.037862244E0,8.338790688E0
1.571777896E1,-5.462141418E-1,-7.841593323E0,-2.193987579E0,8.161036529E0
1.572779196E1,-4.049079895E-1,-7.674840088E0,-2.245031433E0,8.006702629E0
1.573780396E1,-2.944377136E-1,-7.547005920E0,-2.365830231E0,7.914615885E0
1.574781596E1,-2.525248718E-1,-7.455396423E0,-2.657423859E0,7.918876575E0
1.575782896E1,-2.245330811E-1,-7.271728363E0,-2.900069275E0,7.831912301E0
1.576784096E1,-2.553689575E-1,-6.877747650E0,-2.760858765E0,7.415589468E0
1.577785396E1,-3.189866638E-1,-6.283483429E0,-2.600691833E0,6.807900888E0
1.578786596E1,-3.017724609E-1,-5.729934540E0,-2.937192078E0,6.445953285E0
1.579787796E1,-1.791773987E-1,-5.177583160E0,-3.503314819E0,6.254013643E0
1.580789096E1,1.886077881E-2,-4.743635559E0,-3.980821838E0,6.192687345E0
1.581790296E1,2.911445618E-1,-4.588857422E0,-4.559817810E0,6.475671089E0
1.582791596E1,7.448510742E-1,-4.781357117E0,-5.290448456E0,7.169729693E0
1.583792796E1,1.320553894E0,-5.203928375E0,-5.169949036E0,7.453395612E0
1.584793996E1,1.598675537E0,-5.423970795E0,-4.035607910E0,6.947039215E0
1.585795296E1,1.701511688E0,-5.627397766E0,-2.973267059E0,6.588100231E0
1.586796496E1,1.871408386E0,-6.420598297E0,-2.233355713E0,7.050824745E0
1.587797696E1,2.144739990E0,-7.704478455E0,-1.794468384E0,8.196280538E0
1.588798996E1,2.635120239E0,-9.320966949E0,-1.760339355E0,9.844951914E0
1.589800196E1,3.184627533E0,-1.114552277E1,-1.422491913E0,1.167852788E1
1.590801496E1,3.860621796E0,-1.341255844E1,-1.420396271E0,1.402920704E1
1.591802696E1,4.686005402E0,-1.637175476E1,-1.580413513E0,1.710235970E1
1.592803896E1,5.751639404E0,-1.987926086E1,-1.368304596E0,2.073978365E1
1.593805196E1,7.143295441E0,-2.414838318E1,-1.188678131E0,2.521079205E1
1.594806396E1,9.081165619E0,-2.882750290E1,-1.985770569E0,3.028920232E1
1.595807696E1,1.136481674E1,-3.321383148E1,-4.564607849E0,3.539990545E1
1.596808896E1,1.327334793E1,-3.593472336E1,-5.830525360E0,3.874895010E1
1.597810096E1,1.448417999E1,-3.569716736E1,-4.230352936E0,3.875532368E1
1.598811396E1,1.460258377E1,-3.183370148E1,-2.796634369E0,3.513461493E1
1.599812596E1,1.299507660E1,-2.633773041E1,-2.170037384E0,2.944922955E1
1.600813896E1,1.188498505E1,-2.175501022E1,-9.229806519E-1,2.480695936E1
1.601815096E1,1.438239166E1,-1.703457642E1,1.052311707E0,2.231899065E1
1.602816296E1,7.831414490E0,-1.984034180E1,-2.961890717E0,2.153469322E1
1.603817596E1,4.269421692E0,-2.216770203E1,1.486408997E0,2.262397813E1
1.604818796E1,4.058360596E0,-1.956117233E1,1.566492462E0,2.003905318E1
1.605820096E1,1.084943848E0,-1.637699387E1,-4.420457611E0,1.699774917E1
1.606821296E1,-1.099763031E0,-1.389261017E1,-7.150480499E0,1.566344366E1
1.607822496E1,-1.841470642E0,-1.163051422E1,-6.368506622E0,1.338722345E1
1.608823796E1,-1.755549316E0,-9.418713684E0,-4.386178894E0,1.053720485E1
1.609824996E1,-1.375489655E0,-6.443201294E0,-8.906478882E-1,6.648313197E0
1.610826196E1,-1.247505798E0,-4.385879517E0,-1.846560059E0,4.919552205E0
1.611827496E1,-1.340761871E0,-2.092498627E0,-1.407373352E0,2.856027425E0
1.612828696E1,-1.798959045E0,5.034031677E-1,-7.286846924E-1,2.005155799E0
1.613829996E1,-2.004182281E0,2.055076447E0,-3.782633972E-1,2.895370273E0
1.614831196E1,-1.957329712E0,2.704276428E0,8.012837219E-1,3.433119020E0
1.615832396E1,-1.724713440E0,2.900069275E0,1.871408386E0,3.858394433E0
1.616833696E1,-1.697320404E0,3.314407654E0,2.785407715E0,4.650235563E0
1.617834896E1,-1.739981689E0,3.775897980E0,2.368075562E0,4.784634124E0
1.618836196E1,-1.698966980E0,4.075275421E0,1.459015961E0,4.650063024E0
1.619837396E1,-1.643432465E0,4.049678650E0,5.310955811E-1,4.402593548E0
1.620838596E1,-1.522483978E0,3.250041504E0,1.634600830E-1,3.592693480E0
1.621839896E1,-1.266965332E0,2.319277039E0,-5.403762817E-1,2.697453180E0
1.622841096E1,-6.472540283E-1,1.552870789E0,-1.527423706E0,2.272304698E0
1.623842396E1,1.392105103E-1,9.583071899E-1,-1.882485352E0,2.116951425E0
1.624843596E1,8.910969543E-1,7.334747314E-2,-9.451345825E-1,1.301043048E0
1.625844796E1,1.367406464E0,-9.981243896E-1,5.269042969E-1,1.773042829E0
1.626846096E1,1.473835144E0,-2.033521271E0,1.333127747E0,2.843348093E0
1.627847296E1,1.328786774E0,-2.637664948E0,1.331630859E0,3.239782618E0
1.628848596E1,1.141825562E0,-2.709814911E0,6.839277649E-1,3.019042837E0
1.629849796E1,7.830216980E-1,-2.318827972E0,-3.595523071E-1,2.473734830E0
1.630850996E1,6.646179199E-2,-1.165626068E0,-1.305285645E0,1.751248673E0
1.631852296E1,-6.568341064E-1,1.478924561E-1,-1.958227844E0,2.070738881E0
1.632853496E1,-9.719288635E-1,7.562274170E-1,-2.382445679E0,2.681897283E0
1.633854696E1,-9.770182800E-1,1.083446960E0,-2.278412018E0,2.705472853E0
1.634855996E1,-8.852590942E-1,1.302890625E0,-1.622026978E0,2.261012862E0
1.635857196E1,-6.090834045E-1,1.464554443E0,-6.367758179E-1,1.709206176E0
1.636858496E1,-1.398092651E-1,1.654509430E0,4.037104797E-1,1.708780336E0
1.637859696E1,3.204835510E-1,1.796863403E0,1.235979767E0,2.204330688E0
1.638860896E1,6.683601379E-1,1.826801147E0,1.646875305E0,2.548745962E0
1.639862196E1,9.357041931E-1,1.663341064E0,1.565294952E0,2.468277562E0
