"Time (s)","Acceleration x (m/s^2)","Acceleration y (m/s^2)","Acceleration z (m/s^2)","Absolute acceleration (m/s^2)"
5.890833272E-4,-1.953587494E0,5.944438477E0,8.053552551E0,1.019865489E1
1.060108334E-2,-2.029479675E0,5.931415558E0,8.126001892E0,1.026315668E1
2.061308332E-2,-2.089504852E0,5.784720612E0,8.222551117E0,1.026836744E1
3.062608335E-2,-2.067350922E0,5.622757416E0,8.245603180E0,1.019212012E1
4.063808333E-2,-1.921404419E0,5.503006439E0,8.204588470E0,1.006430061E1
5.065337499E-2,-1.795216827E0,5.433999939E0,8.203241272E0,1.000221606E1
6.066637501E-2,-1.676513672E0,5.428012390E0,8.263416138E0,1.002786432E1
7.067837499E-2,-1.567091217E0,5.431904297E0,8.358318787E0,1.009073100E1
8.069037501E-2,-1.436712341E0,5.453160095E0,8.375083923E0,1.009668897E1
9.070337500E-2,-1.292113037E0,5.551655273E0,8.322842560E0,1.008762314E1
1.007153750E-1,-1.207538910E0,5.670957184E0,8.171058197E0,1.001918648E1
1.107283750E-1,-1.116378479E0,5.717510376E0,8.034242706E0,9.923975094E0
1.207403750E-1,-1.066232758E0,5.712271271E0,7.926466827E0,9.828314796E0
1.307523750E-1,-1.021924896E0,5.659580841E0,7.861501923E0,9.740554310E0
1.407653750E-1,-9.843530273E-1,5.550906830E0,7.743098145E0,9.577947922E0
1.507773750E-1,-9.156459045E-1,5.422922974E0,7.614515533E0,9.392941382E0
1.607893750E-1,-8.547225952E-1,5.324278107E0,7.480394440E0,9.221430965E0
1.708023750E-1,-8.072712708E-1,5.264552307E0,7.422913971E0,9.136019359E0
1.808143750E-1,-8.178991699E-1,5.203329620E0,7.398814087E0,9.082183002E0
1.908263750E-1,-8.460406494E-1,5.164260864E0,7.371121674E0,9.039845672E0
2.008393750E-1,-8.867559814E-1,5.159770203E0,7.328310699E0,9.006314586E0
2.108513750E-1,-9.196875000E-1,5.242697754E0,7.331454163E0,9.059907559E0
2.208633750E-1,-9.979747009E-1,5.360353088E0,7.430847473E0,9.216660616E0
2.308763750E-1,-1.117426300E0,5.466781769E0,7.577692108E0,9.410407118E0
2.408883750E-1,-1.223555603E0,5.559439087E0,7.701035614E0,9.576554746E0
2.509003750E-1,-1.326092377E0,5.680836639E0,7.893535309E0,9.815208892E0
2.609133750E-1,-1.483115845E0,5.775739288E0,8.070167999E0,1.003426173E1
2.709253750E-1,-1.624421997E0,5.849236450E0,8.202343140E0,1.020444741E1
2.809383750E-1,-1.681453400E0,5.903872833E0,8.297844543E0,1.032168707E1
2.909503750E-1,-1.638642426E0,5.836063843E0,8.352031860E0,1.031994314E1
3.009623750E-1,-1.701362000E0,5.629942474E0,8.296647034E0,1.016981991E1
3.109753750E-1,-1.660646667E0,5.495971069E0,8.275091858E0,1.007177197E1
3.209873750E-1,-1.218466187E0,5.158572693E0,8.470585327E0,9.992314440E0
3.309993750E-1,-9.292675781E-1,4.973557434E0,8.349038086E0,9.762491933E0
3.410123750E-1,-5.548960876E-1,4.783602448E0,8.302185516E0,9.597762572E0
3.510243750E-1,-2.047741699E-1,4.612657928E0,8.272996216E0,9.474228835E0
3.610363750E-1,1.540296936E-1,4.374353485E0,7.813751221E0,8.956193483E0
3.710493750E-1,4.646337891E-1,4.149521027E0,7.010072479E0,8.159382665E0
3.810613750E-1,7.363188171E-1,3.948638763E0,6.209836578E0,7.395673317E0
3.910733750E-1,9.108558655E-1,3.730691986E0,5.221741333E0,6.481844155E0
4.010863750E-1,1.073268127E0,3.582350464E0,4.146676941E0,5.583911619E0
4.110983750E-1,1.216819611E0,3.498225403E0,3.059338074E0,4.803933845E0
4.211103750E-1,1.306034088E0,3.404520264E0,2.131118317E0,4.223523238E0
4.311233750E-1,1.273252258E0,3.226839752E0,1.351539459E0,3.722945744E0
4.411353750E-1,1.323847046E0,3.187920685E0,5.203179932E-1,3.490865238E0
4.511483750E-1,1.396296387E0,3.328777771E0,-2.386038208E-1,3.617642441E0
4.611603750E-1,1.389111328E0,3.466491394E0,-9.675878906E-1,3.857773865E0
4.711723750E-1,1.492097168E0,3.465593262E0,-1.317111053E0,3.996432427E0
4.811853750E-1,1.757495270E0,3.605252838E0,3.222798157E-1,4.023742279E0
4.911973750E-1,4.447251892E-1,2.877017212E0,1.547032928E0,3.296713426E0
5.012093750E-1,-1.446891174E0,1.713187408E0,3.795656891E0,4.408573057E0
5.112223750E-1,-2.894381104E0,4.647834778E-1,8.127199402E0,8.639724288E0
5.212343750E-1,-2.978506165E0,-4.330494690E-1,8.625962219E0,9.135986812E0
5.312463750E-1,-1.590891724E0,-7.173083496E-1,7.185507660E0,7.394388959E0
5.412593750E-1,-4.983137512E-1,-5.376818848E-1,5.856271820E0,5.901977468E0
5.512713750E-1,-4.677772522E-1,-2.812651062E-1,4.660258942E0,4.692114558E0
5.612833750E-1,-3.014730835E-1,-9.595046997E-2,3.884571991E0,3.897434036E0
5.712963750E-1,3.764671326E-1,-6.047424316E-2,3.316802673E0,3.338647123E0
5.813083750E-1,1.213077393E0,-1.556762695E-2,2.517464905E0,2.794535500E0
5.913213750E-1,2.687062225E0,4.233197021E-1,2.656226349E0,3.801978615E0
6.013333750E-1,4.064797211E0,-1.303788757E-1,4.240831146E0,5.875731769E0
6.113453750E-1,3.168012085E0,3.159928894E-1,4.615202637E0,5.606803675E0
6.213583750E-1,1.174906769E0,9.533674622E-1,4.609364777E0,4.851346110E0
6.313703750E-1,-1.586700439E-1,1.218017120E0,3.892355804E0,4.081565337E0
6.413823750E-1,-6.915618896E-2,-5.388793945E-3,3.807631989E0,3.808263775E0
6.513953750E-1,2.475851440E-1,-9.725276184E-1,3.920946350E0,4.047335995E0
6.614073750E-1,9.514215088E-1,-9.376501465E-1,4.611759796E0,4.801324724E0
6.714193750E-1,2.292482758E0,-3.427871704E-2,5.321583710E0,5.794471969E0
6.814323750E-1,4.226311340E0,5.613327026E-1,6.834936676E0,8.055629169E0
6.914443750E-1,6.234684906E0,5.897735596E-1,8.941955109E0,1.091685348E1
7.014563750E-1,6.566245422E0,-1.927990723E-1,1.135029694E1,1.311419044E1
7.114693750E-1,7.679480438E0,-4.852908325E-1,1.347752335E1,1.551945755E1
7.214813750E-1,8.212222595E0,2.830314331E0,1.345013031E1,1.601116125E1
7.314933750E-1,7.586673431E0,4.462220764E0,1.939172470E1,2.129572762E1
7.415063750E-1,6.222111053E0,2.906056824E0,2.348002304E1,2.446367336E1
7.515183750E-1,5.454656982E0,3.094365234E0,2.276989975E1,2.361772033E1
7.615313750E-1,6.418053589E0,5.341641998E0,2.101075790E1,2.260921270E1
7.715433750E-1,7.296726379E0,5.539231110E0,2.168645279E1,2.354203754E1
7.815553750E-1,6.532565460E0,3.688779144E0,2.094983459E1,2.225257452E1
7.915683750E-1,5.965095520E0,2.539169769E0,2.021621017E1,2.123028265E1
8.015803750E-1,5.952821045E0,1.023870850E0,1.985635849E1,2.075474313E1
8.115923750E-1,5.970184937E0,-7.231462097E-1,1.933095108E1,2.024479484E1
8.216053750E-1,6.456224213E0,-1.905986481E0,1.900492905E1,2.016191815E1
8.316173750E-1,7.394922180E0,-2.798580322E0,1.844988327E1,2.007274567E1
8.416293750E-1,8.592581635E0,-3.840413818E0,1.801204376E1,2.032276945E1
8.516423750E-1,1.023092468E1,-5.083279266E0,1.764620453E1,2.102141961E1
8.616543750E-1,1.203018311E1,-6.562802582E0,1.755923538E1,2.227380593E1
8.716663750E-1,1.323652451E1,-8.077652435E0,1.762464935E1,2.347514248E1
8.816793750E-1,1.340642120E1,-9.090296631E0,1.699281326E1,2.347597335E1
8.916913750E-1,1.292367508E1,-9.137897644E0,1.531884430E1,2.202701844E1
9.017043750E-1,1.289403671E1,-9.130263519E0,1.419273605E1,2.123797663E1
9.117163750E-1,1.291589127E1,-9.526639252E0,1.298938843E1,2.064706551E1
9.217283750E-1,1.236818024E1,-1.002285736E1,1.164099243E1,1.972161902E1
9.317413750E-1,1.208032883E1,-1.085512665E1,1.107771378E1,1.965919280E1
9.417533750E-1,1.226729004E1,-1.109223358E1,9.898016968E0,1.927420013E1
9.517653750E-1,1.254526199E1,-1.102547241E1,8.701405334E0,1.883239483E1
9.617783750E-1,1.309327240E1,-1.079375427E1,7.776329041E0,1.866574956E1
9.717903750E-1,1.342603043E1,-1.015593063E1,6.591243439E0,1.807887469E1
9.818023750E-1,1.346509918E1,-9.182355194E0,5.158572693E0,1.709489442E1
9.918153750E-1,1.282503021E1,-8.356672211E0,3.641477509E0,1.573453936E1
1.001827375E0,1.177271851E1,-7.358996887E0,2.448757782E0,1.409780660E1
1.011839375E0,1.066831512E1,-5.951024780E0,1.593885498E0,1.231942022E1
1.021852375E0,9.821226654E0,-4.687352600E0,1.212927704E0,1.094983840E1
1.031864375E0,9.065148926E0,-3.534300385E0,8.747808838E-1,9.769004343E0
1.041877375E0,8.429869995E0,-2.396666107E0,3.969744873E-1,8.772930258E0
1.051885958E0,7.951315155E0,-1.289568329E0,-9.385482788E-2,8.055756197E0
1.061897958E0,7.400909729E0,-2.052232361E-1,-5.276527405E-1,7.422533180E0
1.071910958E0,6.561754761E0,8.509803772E-1,-8.494834900E-1,6.671013067E0
1.081922958E0,5.649252319E0,1.849853210E0,-8.655001831E-1,6.007087417E0
1.091934958E0,4.783003693E0,2.626737671E0,-5.346881104E-1,5.482952352E0
1.101947958E0,3.948938141E0,3.119812317E0,-1.914518738E-1,5.036267979E0
1.111959958E0,3.046315155E0,3.287763062E0,-1.603166199E-1,4.484988672E0
1.121971958E0,2.292782135E0,3.189118195E0,-2.483335876E-1,3.935605970E0
1.131984958E0,1.941612396E0,3.100203094E0,-5.406756592E-1,3.697762579E0
1.141996958E0,1.808539124E0,3.083437958E0,-1.000669098E0,3.712107494E0
1.152008958E0,1.728006592E0,2.996768188E0,-1.210083618E0,3.664823150E0
1.162021958E0,1.745370483E0,2.806962891E0,-1.157243500E0,3.502080997E0
1.172033958E0,1.765877838E0,2.648143158E0,-9.514215088E-1,3.322076100E0
1.182046958E0,1.909579010E0,2.482288055E0,-6.845265198E-1,3.205748359E0
1.192058958E0,2.047292633E0,2.325863342E0,-3.396437073E-1,3.117114894E0
1.202070958E0,1.966610413E0,2.178719330E0,1.492396545E-1,2.938817263E0
1.212083958E0,1.813778229E0,2.091001740E0,4.806504822E-1,2.809466964E0
1.222095958E0,1.860181732E0,2.120939484E0,7.394622803E-2,2.822078740E0
1.232107958E0,1.896705780E0,2.082768860E0,-1.284329224E-1,2.819913821E0
1.242120958E0,1.837279358E0,1.821262665E0,-2.865042114E-1,2.602821123E0
1.252132958E0,1.717827759E0,1.571282501E0,-4.346960449E-1,2.368295074E0
1.262144958E0,1.550475769E0,1.503024445E0,-1.312770081E-1,2.163398078E0
1.272157958E0,1.557361450E0,1.259480896E0,1.324745178E-1,2.007290789E0
1.282169958E0,1.864073639E0,6.713539124E-1,-1.877096558E-1,1.990156155E0
1.292181958E0,2.809956665E0,-3.763174438E-1,-4.507127380E-1,2.870646835E0
1.302194958E0,4.597838745E0,-2.173031158E0,-5.819897461E-1,5.118681237E0
1.312206958E0,7.293433228E0,-4.960085449E0,-8.994795227E-1,8.865984397E0
1.322219958E0,1.064795746E1,-8.343649292E0,-1.408121796E0,1.360067236E1
1.332231958E0,1.307635757E1,-1.205009171E1,-2.098935242E0,1.790534464E1
1.342243958E0,1.406430313E1,-1.611324234E1,-1.619332581E0,2.144908947E1
1.352256958E0,1.388632324E1,-1.852053635E1,-1.748364258E-1,2.314888350E1
1.362268958E0,1.312291077E1,-1.742241989E1,1.741179199E0,2.188111530E1
1.372280958E0,1.306857376E1,-1.569351517E1,2.883753204E0,2.062498657E1
1.382293958E0,1.386431900E1,-1.570429276E1,3.604205017E0,2.125639777E1
1.392305958E0,1.492965363E1,-1.766925659E1,3.884721680E0,2.345609193E1
1.402317958E0,1.573348206E1,-1.994048355E1,2.679577789E0,2.554105477E1
1.412330958E0,1.692455521E1,-2.095851654E1,1.872905273E0,2.700384711E1
1.422342958E0,1.787283325E1,-2.100072876E1,1.787882080E0,2.763449473E1
1.432355958E0,1.786055878E1,-2.031665131E1,1.732646942E0,2.710660336E1
1.442367958E0,1.664463730E1,-1.830303864E1,8.863069153E-1,2.475541787E1
1.452379958E0,1.319311478E1,-1.437266190E1,-7.029382324E-1,1.952244374E1
1.462392958E0,1.054616913E1,-1.075184143E1,-1.802401886E0,1.516813865E1
1.472404958E0,9.011710052E0,-8.307125244E0,-2.056573334E0,1.242774082E1
1.482416958E0,7.953859863E0,-7.030430145E0,-2.204914856E0,1.084216234E1
1.492429958E0,7.363337860E0,-6.336024170E0,-3.125650177E0,1.020458896E1
1.502441958E0,6.840475159E0,-5.687872009E0,-4.088148651E0,9.790656147E0
1.512453958E0,6.089187469E0,-4.700824585E0,-4.858446808E0,9.098376844E0
1.522466958E0,5.271887054E0,-3.392694855E0,-5.300926666E0,8.209932705E0
1.532478958E0,4.659211121E0,-2.160756683E0,-5.194497986E0,7.304787953E0
1.542491958E0,4.099824371E0,-1.297651520E0,-5.007237396E0,6.600370117E0
1.552503958E0,3.588188324E0,-8.885522461E-1,-4.883145447E0,6.124518756E0
1.562515958E0,3.211571503E0,-8.222401428E-1,-4.719385986E0,5.767397546E0
1.572528958E0,2.951562195E0,-9.632469177E-1,-4.483177185E0,5.453296406E0
1.582540958E0,2.755619659E0,-1.204694824E0,-4.161795502E0,5.134712370E0
1.592552958E0,2.581831055E0,-1.411115570E0,-3.871998138E0,4.863071903E0
1.602565958E0,2.510429535E0,-1.533710632E0,-3.426075439E0,4.515807532E0
1.612577958E0,2.526595917E0,-1.597028961E0,-2.992726593E0,4.229728229E0
1.622589958E0,2.497107239E0,-1.646575928E0,-2.490221558E0,3.892038059E0
1.632602958E0,2.545007629E0,-1.838027802E0,-1.994901581E0,3.719548676E0
1.642614958E0,2.953059082E0,-2.409988403E0,-1.624871063E0,4.143526037E0
1.652626958E0,3.616629181E0,-3.276835785E0,-1.302142181E0,5.051062626E0
1.662639958E0,4.539460144E0,-4.424948273E0,-1.053808594E0,6.426303616E0
1.672651958E0,5.877228241E0,-5.963898010E0,-6.960525513E-1,8.402046205E0
1.682664958E0,7.639064484E0,-7.971373444E0,-5.763015747E-2,1.104089770E1
1.692676958E0,9.082662506E0,-9.853709106E0,9.394464111E-1,1.343402028E1
1.702688958E0,9.858499146E0,-1.087189178E1,2.075883179E0,1.482219037E1
1.712701958E0,9.969867554E0,-1.052985306E1,2.502645721E0,1.471527438E1
1.722713958E0,1.073462723E1,-1.011790970E1,2.305505676E0,1.493049479E1
1.732725958E0,1.266381546E1,-1.146675476E1,1.893861694E0,1.718852521E1
1.742738958E0,1.474134521E1,-1.385713394E1,1.057850189E0,2.025947844E1
1.752750958E0,1.588002731E1,-1.505479340E1,-3.459306335E-1,2.188473760E1
1.762762958E0,1.435215454E1,-1.548694473E1,-9.312135315E-1,2.113520655E1
1.772775958E0,1.210577591E1,-1.376806915E1,-1.510808258E0,1.839543639E1
1.782787958E0,1.026340714E1,-9.762548676E0,-1.512903900E0,1.424548212E1
1.792799958E0,8.957522736E0,-6.427783356E0,-6.459068298E-1,1.104403948E1
1.802812958E0,7.855364685E0,-4.298461304E0,-3.876937866E-2,8.954609259E0
1.812824958E0,6.752458191E0,-3.092419281E0,5.763015747E-2,7.427117197E0
1.822837958E0,5.592071228E0,-2.651735687E0,-3.293151855E-1,6.197694028E0
1.832849958E0,4.771627350E0,-2.702779541E0,-9.309141541E-1,5.562377727E0
1.842861958E0,4.449646912E0,-2.982996826E0,-1.449286194E0,5.549599821E0
1.852874958E0,4.548291779E0,-3.398981781E0,-1.846859436E0,5.970839558E0
1.862886958E0,4.781955872E0,-3.988905029E0,-2.043550415E0,6.553973115E0
1.872898958E0,5.158123627E0,-4.672832794E0,-1.964065704E0,7.231815800E0
1.882911958E0,5.781577148E0,-5.523663483E0,-1.719773712E0,8.178943343E0
1.892923958E0,6.520590363E0,-6.405180359E0,-1.273551636E0,9.228562612E0
1.902935958E0,7.135661316E0,-7.258705444E0,-5.020559692E-1,1.019110040E1
1.912948958E0,7.319329376E0,-7.980055389E0,5.373825073E-2,1.082851580E1
1.922960958E0,7.394024048E0,-8.494236145E0,1.152603149E-2,1.126160611E1
1.932973958E0,7.733817444E0,-8.719966736E0,-1.462458801E-1,1.165637765E1
1.942985958E0,8.094267883E0,-8.900790710E0,-3.945794678E-1,1.203731452E1
1.952997958E0,8.261170807E0,-9.044342194E0,-6.691085815E-1,1.226763119E1
1.963010958E0,8.170309753E0,-9.010961609E0,-9.177415466E-1,1.219809986E1
1.973022958E0,7.807164917E0,-8.766819305E0,-1.185235291E0,1.179888670E1
1.983034958E0,7.341034241E0,-8.356522522E0,-1.468296661E0,1.121954310E1
1.993047958E0,6.840475159E0,-7.784112854E0,-1.737736359E0,1.050734224E1
2.003059958E0,6.394851837E0,-7.082521820E0,-1.955234070E0,9.740594726E0
2.013071958E0,6.101461945E0,-6.523883514E0,-2.079924774E0,9.171421975E0
2.023084958E0,5.891598358E0,-6.135590973E0,-2.190694427E0,8.783823192E0
2.033096958E0,5.820945282E0,-5.926775208E0,-2.185754700E0,8.589970427E0
2.043109958E0,5.942642212E0,-5.994883575E0,-2.139351196E0,8.708068045E0
2.053126083E0,6.142326965E0,-6.236181793E0,-2.110012207E0,9.003904454E0
2.063138083E0,6.191275177E0,-6.417903900E0,-1.960772552E0,9.130498770E0
2.073151083E0,6.193670197E0,-6.461014252E0,-1.607207794E0,9.093369703E0
2.083163083E0,6.225254517E0,-6.414161682E0,-1.415606232E0,9.049817948E0
2.093175083E0,6.347849579E0,-6.359525299E0,-1.485510864E0,9.107441948E0
2.103188083E0,6.560557251E0,-6.315217438E0,-1.499132538E0,9.228774626E0
2.113200083E0,6.741231537E0,-6.293811951E0,-1.480870514E0,9.340730645E0
2.123212083E0,6.893464966E0,-6.325246582E0,-1.417402496E0,9.462432742E0
2.133225083E0,7.114555206E0,-6.455176392E0,-1.314416656E0,9.696075968E0
2.143237083E0,7.342531128E0,-6.650969238E0,-1.180295563E0,9.977036273E0
2.153250083E0,7.502099304E0,-6.812183990E0,-1.033450928E0,1.018603777E1
2.163262083E0,7.586823120E0,-6.871011658E0,-9.630972290E-1,1.028096506E1
2.173274083E0,7.530091095E0,-6.787335663E0,-8.629554749E-1,1.017422672E1
2.183287083E0,7.378456421E0,-6.572682037E0,-7.095245361E-1,9.906825596E0
2.193299083E0,7.142097931E0,-6.350693665E0,-6.505471802E-1,9.579357208E0
2.203311083E0,6.927444305E0,-6.218967590E0,-6.786886597E-1,9.334112748E0
2.213324083E0,6.840624847E0,-6.233487396E0,-7.134164429E-1,9.282212907E0
2.223336083E0,6.954687653E0,-6.329587555E0,-8.015830994E-1,9.437896716E0
2.233348083E0,7.109914856E0,-6.498137054E0,-9.499246216E-1,9.678792860E0
2.243361083E0,7.163952484E0,-6.598129120E0,-1.036744080E0,9.794506693E0
2.253373083E0,7.206763458E0,-6.603966980E0,-1.109792175E0,9.837756761E0
2.263386083E0,7.247329102E0,-6.573879547E0,-1.191522217E0,9.856946616E0
2.273398083E0,7.232509918E0,-6.501579895E0,-1.242416382E0,9.804251084E0
2.283410083E0,7.224576416E0,-6.470294952E0,-1.259331207E0,9.779833140E0
2.293423083E0,7.236701202E0,-6.484515381E0,-1.268611908E0,9.799395909E0
2.303435083E0,7.270530853E0,-6.528823242E0,-1.277144165E0,9.854808422E0
2.313447083E0,7.308402100E0,-6.577472076E0,-1.295406189E0,9.917356370E0
2.323460083E0,7.250322876E0,-6.579418030E0,-1.272204437E0,9.872913833E0
2.333472083E0,7.208410034E0,-6.576723633E0,-1.212478638E0,9.832831404E0
2.343484083E0,7.194189606E0,-6.557713165E0,-1.154100037E0,9.802648261E0
2.353497083E0,7.186106415E0,-6.505022736E0,-1.111289062E0,9.756557260E0
2.363509083E0,7.171885986E0,-6.465804291E0,-1.073866882E0,9.715748237E0
2.373521083E0,7.179520111E0,-6.483617249E0,-1.079255676E0,9.733837602E0
2.383534083E0,7.253316650E0,-6.587501221E0,-1.136885834E0,9.863989262E0
2.393546083E0,7.293732605E0,-6.635251923E0,-1.182989960E0,9.930990315E0
2.403559083E0,7.380851440E0,-6.606062622E0,-1.189576263E0,9.976578724E0
2.413571083E0,7.411687317E0,-6.562503204E0,-1.173709259E0,9.968808886E0
2.423583083E0,7.371271362E0,-6.563700714E0,-1.128952332E0,9.934401941E0
2.433596083E0,7.331753540E0,-6.621181183E0,-1.092727661E0,9.939250674E0
2.443608083E0,7.250173187E0,-6.666536865E0,-1.066981201E0,9.906875083E0
2.453620083E0,7.210954742E0,-6.706952820E0,-9.696835327E-1,9.895522754E0
2.463633083E0,7.090754700E0,-6.708150330E0,-1.000519409E0,9.812192525E0
2.473645083E0,6.958130493E0,-6.603817291E0,-1.153201904E0,9.662083492E0
2.483658083E0,7.224127350E0,-6.590794373E0,-1.105900269E0,9.841219530E0
2.493670083E0,7.432044983E0,-6.655759277E0,-1.061742096E0,1.003303147E1
2.503682083E0,7.437882843E0,-6.690337372E0,-1.075064392E0,1.006173339E1
2.513695083E0,7.399263153E0,-6.653663635E0,-1.029708710E0,1.000403094E1
2.523707083E0,7.395520935E0,-6.621480560E0,-9.512718201E-1,9.972093701E0
2.533719083E0,7.409591675E0,-6.572382660E0,-9.021739197E-1,9.945460291E0
2.543732083E0,7.344926147E0,-6.560706940E0,-8.202941895E-1,9.882494534E0
2.553744083E0,7.250771942E0,-6.601122894E0,-7.551795959E-1,9.834572357E0
2.563756083E0,7.289990387E0,-6.721173248E0,-7.258406067E-1,9.942080982E0
2.573769083E0,7.399861908E0,-6.824757843E0,-6.843768311E-1,1.008977936E1
2.583781083E0,7.397616577E0,-6.889722748E0,-6.541397095E-1,1.013019789E1
2.593793083E0,7.456593933E0,-6.933132477E0,-6.691085815E-1,1.020376525E1
2.603806083E0,7.508685608E0,-6.948849792E0,-7.017407227E-1,1.025472150E1
2.613818083E0,7.424710236E0,-6.872957611E0,-7.183561707E-1,1.014297313E1
2.623831083E0,7.292984161E0,-6.757397919E0,-6.822811890E-1,9.965718852E0
2.633843083E0,7.265890503E0,-6.711443481E0,-6.824308777E-1,9.914754173E0
2.643855083E0,7.257507935E0,-6.659950562E0,-5.406756592E-1,9.865023724E0
2.653868083E0,7.235803070E0,-6.605763245E0,-5.240602112E-1,9.811605028E0
2.663880083E0,7.232809296E0,-6.707401886E0,-5.887257385E-1,9.881769496E0
2.673892083E0,7.228019257E0,-6.882238312E0,-5.237608337E-1,9.994187909E0
2.683905083E0,7.240593109E0,-6.916666718E0,-4.848417664E-1,1.002504557E1
2.693917083E0,7.192692719E0,-6.861431580E0,-4.936734009E-1,9.952777768E0
2.703929083E0,7.123686218E0,-6.831493835E0,-4.297563171E-1,9.879316973E0
2.713942083E0,6.962321777E0,-6.918612671E0,-3.210823059E-1,9.820601798E0
2.723954083E0,6.766528931E0,-6.993157654E0,-2.484832764E-1,9.734059363E0
2.733967083E0,6.651567993E0,-6.995852051E0,-2.445913696E-1,9.656351672E0
2.743979083E0,6.610702972E0,-6.974596252E0,-2.918930054E-1,9.614134813E0
2.753991083E0,6.592890015E0,-6.942413177E0,-3.414399719E-1,9.580181665E0
2.764004083E0,6.602021027E0,-6.878346405E0,-3.766168213E-1,9.541497321E0
2.774016083E0,6.603218536E0,-6.805747375E0,-3.547622681E-1,9.489285992E0
2.784028083E0,6.588549042E0,-6.753805389E0,-2.956352234E-1,9.439823404E0
2.794041083E0,6.589447174E0,-6.777007141E0,-2.469863892E-1,9.455667196E0
2.804053083E0,6.610852661E0,-6.879543915E0,-2.633024597E-1,9.544675247E0
2.814066083E0,6.678811340E0,-6.980434113E0,-3.372486877E-1,9.666784263E0
2.824078083E0,6.670428772E0,-7.027286682E0,-3.977229309E-1,9.697193493E0
2.834090083E0,6.646628265E0,-7.021149445E0,-4.472698975E-1,9.678546233E0
2.844103083E0,6.649771729E0,-7.030579834E0,-4.972659302E-1,9.689984017E0
2.854115083E0,6.650520172E0,-7.064409485E0,-5.295986938E-1,9.716778000E0
2.864127083E0,6.660399628E0,-7.080725555E0,-5.408253479E-1,9.736020216E0
2.874140083E0,6.618636475E0,-7.096143494E0,-5.233117676E-1,9.717790720E0
2.884152083E0,6.590195618E0,-7.109016724E0,-4.748126221E-1,9.705371919E0
2.894164083E0,6.614594879E0,-7.151528320E0,-4.507127380E-1,9.751941586E0
2.904177083E0,6.632258148E0,-7.194938049E0,-4.436773682E-1,9.795449519E0
2.914189083E0,6.627917175E0,-7.220534821E0,-4.466711426E-1,9.811469018E0
2.924202083E0,6.630312195E0,-7.252867584E0,-4.779560852E-1,9.838372325E0
2.934214083E0,6.628815308E0,-7.254963226E0,-5.298980713E-1,9.841568765E0
2.944226083E0,6.634353790E0,-7.256011047E0,-5.763015747E-1,9.848678594E0
2.954239083E0,6.668632507E0,-7.278464355E0,-5.987548828E-1,9.889651677E0
2.964251083E0,6.640191650E0,-7.262148285E0,-6.204597473E-1,9.859813039E0
2.974263083E0,6.599027252E0,-7.268884277E0,-6.095324707E-1,9.836430712E0
2.984276083E0,6.550079041E0,-7.312144318E0,-5.763015747E-1,9.833774121E0
2.994288083E0,6.525081024E0,-7.345225525E0,-5.641767883E-1,9.841103385E0
3.004300083E0,6.486461334E0,-7.358547821E0,-5.605842590E-1,9.825307190E0
3.014313083E0,6.443350983E0,-7.381599884E0,-5.653742981E-1,9.814501354E0
3.024325083E0,6.418203278E0,-7.409292297E0,-5.831872559E-1,9.819931417E0
3.034338083E0,6.384074249E0,-7.414830780E0,-5.725593567E-1,9.801221543E0
3.044350083E0,6.386469269E0,-7.415130157E0,-5.698649597E-1,9.802851169E0
3.054362208E0,6.390660553E0,-7.401807861E0,-5.788462830E-1,9.796038227E0
3.064375208E0,6.366710358E0,-7.358547821E0,-5.749543762E-1,9.747502211E0
3.074387208E0,6.390660553E0,-7.309000854E0,-5.998027039E-1,9.727373699E0
3.084399208E0,6.399192810E0,-7.294780426E0,-6.032455444E-1,9.722520006E0
3.094412208E0,6.410120087E0,-7.324568481E0,-6.587800598E-1,9.755661645E0
3.104424208E0,6.443500671E0,-7.366930389E0,-7.259902954E-1,9.814144190E0
3.114436208E0,6.506369934E0,-7.399861908E0,-7.655081177E-1,9.883157828E0
3.124449208E0,6.728208618E0,-7.436685333E0,-8.770262146E-1,1.006688904E1
3.134461208E0,7.078480225E0,-7.555388489E0,-8.755293274E-1,1.039015539E1
3.144474208E0,7.374115448E0,-7.724087677E0,-7.017407227E-1,1.070194137E1
3.154486208E0,7.538773041E0,-7.821235657E0,-4.273612976E-1,1.087140579E1
3.164498208E0,7.197632446E0,-7.930209045E0,-2.046244812E-1,1.071148914E1
3.174511208E0,6.445147247E0,-7.960146790E0,5.673202515E-2,1.024241566E1
3.184523208E0,5.729036407E0,-7.895032196E0,2.353106689E-1,9.757497766E0
3.194535208E0,5.249882812E0,-7.752528534E0,2.930905151E-1,9.367436697E0
3.204548208E0,5.073250122E0,-7.522307281E0,2.489323425E-1,9.076615060E0
3.214560208E0,5.156776428E0,-7.155569916E0,2.245330811E-2,8.820148984E0
3.224573208E0,5.563330994E0,-7.171137543E0,-1.818717957E-1,9.077937142E0
3.234585208E0,6.065087585E0,-7.414980469E0,-5.493576050E-2,9.579678528E0
3.244597208E0,5.917494507E0,-7.499704285E0,-2.829116821E-2,9.553172561E0
3.254610208E0,5.441484375E0,-7.783663788E0,-9.026229858E-2,9.497542916E0
3.264622208E0,5.471571808E0,-7.983797607E0,-9.774673462E-2,9.679291126E0
3.274634208E0,5.549260254E0,-8.089926910E0,-1.022373962E-1,9.810792999E0
3.284647208E0,5.540578308E0,-8.179590454E0,-1.405577087E-1,9.880458717E0
3.294659208E0,5.535339203E0,-8.274792480E0,-2.576142883E-1,9.958842092E0
3.304671208E0,5.500611420E0,-8.279881897E0,-2.942880249E-1,9.944836633E0
3.314684208E0,5.425916748E0,-8.160430298E0,-2.248324585E-1,9.802231625E0
3.324696208E0,5.355563049E0,-7.940238190E0,-1.435514832E-1,9.578624385E0
3.334709208E0,5.279970245E0,-7.657326508E0,-1.477427673E-1,9.302395550E0
3.344721208E0,4.962929535E0,-7.198680267E0,-6.930587769E-2,8.743939070E0
3.354733208E0,4.858596497E0,-7.500602417E0,-3.171903992E-1,8.942349036E0
3.364746208E0,5.343288574E0,-8.123606873E0,-4.415817261E-2,9.723459845E0
3.374758208E0,5.276078339E0,-7.861801300E0,4.894821167E-2,9.468226774E0
3.384770208E0,4.740192719E0,-7.342830505E0,-2.728825378E-1,8.744201034E0
3.394783208E0,4.642895050E0,-6.899602203E0,-3.597019958E-1,8.324083766E0
3.404795208E0,4.322561188E0,-6.657705231E0,-4.448748779E-1,7.950313693E0
3.414808208E0,4.213887177E0,-6.158343658E0,-2.995271301E-1,7.468049160E0
3.424820208E0,3.790417786E0,-5.670957184E0,-7.930508423E-1,6.867019150E0
3.434832208E0,3.369792480E0,-5.460494843E0,-1.521885223E0,6.594591717E0
3.444845208E0,3.414848785E0,-5.244793396E0,-2.257754974E0,6.653308013E0
3.454857208E0,3.438649292E0,-5.215753784E0,-2.756966858E0,6.828562275E0
3.464869208E0,3.115171967E0,-5.630541229E0,-2.213297424E0,6.804849477E0
3.474882208E0,2.603236542E0,-6.139632568E0,-1.077609100E0,6.755232782E0
3.484894208E0,2.584974518E0,-6.605014801E0,-1.020877075E-1,7.093570024E0
3.494906208E0,2.694247284E0,-6.657405853E0,3.847000122E-2,7.182026251E0
3.504919208E0,2.768642578E0,-5.972579956E0,-3.532653809E-1,6.592563195E0
3.514931208E0,2.677182770E0,-5.111420746E0,-4.299060059E-1,5.786082336E0
3.524944208E0,2.427352295E0,-4.422553253E0,-2.507286072E-1,5.051126733E0
3.534956208E0,2.308349762E0,-3.988905029E0,-6.735992432E-3,4.608675225E0
3.544968208E0,2.226769409E0,-3.869453430E0,2.993774414E-3,4.464435106E0
3.554981208E0,2.162103882E0,-4.084556122E0,-1.187031555E-1,4.623027401E0
3.564993208E0,2.246827698E0,-4.317172394E0,-2.615061951E-1,4.873868861E0
3.575005208E0,2.523153076E0,-4.401297455E0,-3.763174438E-1,5.087173631E0
3.585018208E0,2.986140289E0,-4.639601898E0,-3.980223083E-1,5.531849723E0
3.595030208E0,3.624712372E0,-5.129832458E0,-3.112028503E-1,6.288924236E0
3.605042208E0,4.269272003E0,-5.705385590E0,-1.799258423E-1,7.128147128E0
3.615055208E0,4.871918793E0,-6.185736694E0,-8.322692871E-2,7.874379842E0
3.625067208E0,5.512137451E0,-6.678811340E0,1.487905884E-1,8.660965237E0
3.635080208E0,6.353986816E0,-7.408543854E0,3.017724609E-1,9.764770203E0
3.645092208E0,7.382348328E0,-8.458759918E0,2.860551453E-1,1.123082872E1
3.655104208E0,8.440198517E0,-9.665550385E0,1.097218323E-1,1.283245316E1
3.665117208E0,9.491612091E0,-1.083626587E1,-2.451901245E-1,1.440747987E1
3.675129208E0,1.031849258E1,-1.193752579E1,-7.141648865E-1,1.579512085E1
3.685141208E0,1.090961334E1,-1.306468185E1,-1.121916962E0,1.705767490E1
3.695154208E0,1.133532806E1,-1.432895279E1,-1.559906158E0,1.833689880E1
3.705166208E0,1.152258865E1,-1.561657516E1,-2.078577576E0,1.951840039E1
3.715179208E0,1.181418228E1,-1.709430222E1,-2.527943115E0,2.093276302E1
3.725191208E0,1.232656677E1,-1.894864609E1,-3.035238190E0,2.280807111E1
3.735203208E0,1.298355057E1,-2.105566452E1,-3.484304352E0,2.498107225E1
3.745216208E0,1.367526215E1,-2.299293594E1,-3.826193390E0,2.702457500E1
3.755228208E0,1.432970123E1,-2.449072128E1,-4.232448578E0,2.868883733E1
3.765240208E0,1.480930389E1,-2.530712357E1,-4.568499756E0,2.967553159E1
3.775253208E0,1.474359055E1,-2.507615387E1,-4.552932129E0,2.944343978E1
3.785265208E0,1.430066162E1,-2.421589279E1,-4.422104187E0,2.846881438E1
3.795278208E0,1.371792343E1,-2.346969452E1,-4.433181152E0,2.754380292E1
3.805290208E0,1.316781738E1,-2.276810349E1,-4.533622284E0,2.668954256E1
3.815302208E0,1.256726624E1,-2.165112625E1,-4.640200653E0,2.546053634E1
3.825315208E0,1.172332123E1,-1.992371841E1,-4.855003967E0,2.362121673E1
3.835327208E0,1.072489746E1,-1.749037857E1,-5.097799072E0,2.114058475E1
3.845339208E0,9.040001221E0,-1.503757919E1,-5.242697754E0,1.831218965E1
3.855352208E0,7.234904938E0,-1.258537857E1,-4.761747894E0,1.527775658E1
3.865364208E0,5.769152985E0,-1.002929398E1,-4.376598816E0,1.237030642E1
3.875376208E0,4.311035156E0,-7.730224915E0,-4.037254486E0,9.728351614E0
3.885389208E0,3.108885040E0,-5.698799286E0,-3.738924866E0,7.491397643E0
3.895401208E0,2.182162170E0,-4.044289856E0,-3.664080505E0,5.877380209E0
3.905414208E0,1.344354401E0,-2.841540985E0,-3.572321320E0,4.758479120E0
3.915426208E0,5.460644531E-1,-1.959724731E0,-3.385060730E0,3.949347232E0
3.925438208E0,-1.221459961E-1,-1.297801208E0,-3.179687805E0,3.436513082E0
3.935451208E0,-5.963598633E-1,-8.972341919E-1,-2.901566162E0,3.095118814E0
3.945463208E0,-9.940827942E-1,-7.228468323E-1,-2.566562805E0,2.845690211E0
3.955475208E0,-1.362167358E0,-7.104226685E-1,-2.188449097E0,2.673856714E0
3.965488208E0,-1.467997284E0,-7.283853149E-1,-1.633253632E0,2.313672107E0
3.975500208E0,-2.019300842E0,-4.864883423E-1,-1.382824402E0,2.495285580E0
3.985513208E0,-2.371967468E0,-5.047503662E-1,-1.218915253E0,2.714177038E0
3.995525208E0,-2.165846100E0,-7.378157043E-1,-6.212081909E-1,2.370898766E0
4.005537208E0,-2.151625671E0,-9.532177734E-1,-2.444416809E-1,2.365981591E0
4.015550208E0,-2.001637573E0,-1.155596924E0,4.116439819E-2,2.311633996E0
4.025562208E0,-1.300794983E0,-1.479673004E0,3.835025024E-1,2.007130777E0
4.035574208E0,-6.185137939E-1,-1.500030670E0,6.279441833E-1,1.739817583E0
4.045587208E0,-3.412902832E-1,-1.228944397E0,6.014492798E-1,1.410150568E0
4.055595083E0,-4.191284180E-3,-1.138831787E0,4.712200928E-1,1.232478715E0
4.065608083E0,6.595285034E-1,-1.043180695E0,6.532415771E-1,1.396398355E0
4.075620083E0,1.241368561E0,-6.309379578E-1,8.226892090E-1,1.617373224E0
4.085632083E0,1.424138489E0,-6.750961304E-2,9.865983582E-1,1.733812073E0
4.095645083E0,1.339714050E0,6.259982300E-1,9.651928711E-1,1.765872249E0
4.105657083E0,1.057401123E0,1.324445801E0,6.560856628E-1,1.817333819E0
4.115669083E0,6.938072205E-1,1.857487335E0,2.782713318E-1,2.002264367E0
4.125682083E0,3.766168213E-1,2.139949951E0,-2.903961182E-2,2.173032288E0
4.135694083E0,1.877096558E-1,2.271676025E0,-2.957849121E-1,2.298529006E0
4.145706083E0,2.032772827E-1,2.191293182E0,-5.255570984E-1,2.262586513E0
4.155719083E0,3.541635132E-1,1.889071655E0,-6.770420837E-1,2.037746180E0
4.165731083E0,6.280938721E-1,1.425635376E0,-7.228468323E-1,1.717395027E0
4.175744083E0,9.279203796E-1,9.376501465E-1,-7.605683899E-1,1.522723975E0
4.185756083E0,1.457219696E0,4.131408691E-1,-6.914122009E-1,1.665000136E0
4.195768083E0,2.297871552E0,-2.329156494E-1,-4.447251892E-1,2.352072248E0
4.205781083E0,3.205434265E0,-1.207389221E0,1.544787598E-1,3.428769640E0
4.215793083E0,4.928201752E0,-2.746788025E0,2.316732330E0,6.099120072E0
4.225805083E0,7.570656738E0,-5.575006714E0,5.890999603E0,1.109501778E1
4.235818083E0,1.011326935E1,-9.926757202E0,1.008812164E1,1.739508332E1
4.245830083E0,1.171733368E1,-1.365101257E1,1.200129318E1,2.162584313E1
4.255843083E0,1.359547806E1,-1.520702682E1,1.046668442E1,2.292688752E1
4.265855083E0,1.556253754E1,-1.632475250E1,1.053045181E1,2.489137470E1
4.275867083E0,1.886736511E1,-1.873803406E1,1.260169464E1,2.942607848E1
4.285880083E0,2.223401413E1,-2.225931152E1,1.352707031E1,3.424631316E1
4.295892083E0,2.283276901E1,-2.461900452E1,1.250948639E1,3.583180115E1
4.305904083E0,2.080897751E1,-2.380784134E1,9.817185059E0,3.310897124E1
4.315917083E0,1.843057343E1,-2.133707932E1,7.201075287E0,2.910004254E1
4.325929083E0,1.652279068E1,-1.895642990E1,5.700146484E0,2.578450148E1
4.335941083E0,1.493594055E1,-1.703891739E1,4.579127655E0,2.311656194E1
4.345954083E0,1.347827179E1,-1.520148834E1,2.773282928E0,2.050463744E1
4.355966083E0,1.225441681E1,-1.299762131E1,1.157842255E0,1.790110303E1
4.365979083E0,1.069855225E1,-1.045845154E1,-3.191363525E-1,1.496462752E1
4.375991083E0,8.758287048E0,-8.185428314E0,-1.414109344E0,1.207097900E1
4.386003083E0,7.003336487E0,-6.190526733E0,-2.443518677E0,9.661269415E0
4.396016083E0,5.190606079E0,-4.347110138E0,-3.604504395E0,7.670215769E0
4.406028083E0,3.734733582E0,-2.774031372E0,-4.982538757E0,6.816830455E0
4.416041083E0,3.068918152E0,-1.879042511E0,-6.635401611E0,7.548351736E0
4.426053083E0,2.971021729E0,-1.716779938E0,-8.104297028E0,8.800791656E0
4.436065083E0,3.195255432E0,-1.740879822E0,-9.492510223E0,1.016602529E1
4.446078083E0,3.889811096E0,-1.811682587E0,-1.070768326E1,1.153548026E1
4.456090083E0,4.395309906E0,-1.818268890E0,-1.112097382E1,1.209549129E1
4.466102083E0,4.256398773E0,-1.688189392E0,-1.072549622E1,1.166204026E1
4.476115083E0,3.742218018E0,-1.702858887E0,-9.650880890E0,1.049015853E1
4.486127083E0,3.218606873E0,-2.151475983E0,-8.584348755E0,9.416969929E0
4.496139083E0,2.777025146E0,-2.685565338E0,-7.725734253E0,8.637771680E0
4.506152083E0,2.414628754E0,-2.928061066E0,-6.908433838E0,7.882285945E0
4.516164083E0,2.254910889E0,-3.060236206E0,-5.951922913E0,7.062227348E0
4.526177083E0,2.461032257E0,-3.450923767E0,-5.016817474E0,6.567648909E0
4.536189083E0,3.012036438E0,-4.154311066E0,-4.255800018E0,6.666520661E0
4.546201083E0,4.014950867E0,-4.905149689E0,-3.660937042E0,7.320026227E0
4.556214083E0,4.961133270E0,-5.401367798E0,-3.193010101E0,7.998933111E0
4.566226083E0,5.712121582E0,-5.762866058E0,-2.609074402E0,8.523275627E0
4.576238083E0,6.447392578E0,-6.340514832E0,-1.868264923E0,9.233710696E0
4.586251083E0,7.396868134E0,-7.350614319E0,-1.098116455E0,1.048575457E1
4.596263083E0,9.056466980E0,-9.003028107E0,-2.333647156E-1,1.277217947E1
4.606276083E0,1.123862915E1,-1.151330795E1,5.501060486E-1,1.609862298E1
4.616288083E0,1.322933945E1,-1.428000458E1,6.664141846E-1,1.947762975E1
4.626300083E0,1.469509140E1,-1.643686935E1,-2.427951050E-1,2.204938400E1
4.636313083E0,1.533171753E1,-1.817071381E1,-1.622625732E0,2.383000875E1
4.646325083E0,1.529399597E1,-1.945833618E1,-2.784060516E0,2.490550447E1
4.656337083E0,1.462818054E1,-1.983585114E1,-4.090693359E0,2.498356316E1
4.666350083E0,1.254316635E1,-1.746672775E1,-5.238356781E0,2.213273554E1
4.676362083E0,9.691147156E0,-1.246383133E1,-4.517156525E0,1.642163596E1
4.686375083E0,7.096143494E0,-7.709268494E0,-2.961291962E0,1.088840316E1
4.696387083E0,5.086123352E0,-4.187691650E0,-1.235830078E0,6.703184922E0
4.706399083E0,3.595972137E0,-1.623673553E0,6.206094360E-1,3.994056521E0
4.716412083E0,2.501448212E0,2.395019531E-1,1.545086975E0,2.949897982E0
4.726424083E0,2.054926758E0,1.167422333E0,1.303190002E0,2.698870702E0
4.736436083E0,1.885329437E0,6.256988525E-1,5.019062805E-1,2.048871898E0
4.746449083E0,1.674118652E0,-9.906399536E-1,-2.231858826E-1,1.958022655E0
4.756461083E0,1.811532898E0,-2.308499451E0,-6.307882690E-1,3.001452148E0
4.766474083E0,2.125280457E0,-3.110681305E0,-9.117539978E-1,3.876138614E0
4.776486083E0,2.740201721E0,-3.672762451E0,-1.173260193E0,4.730161623E0
4.786498083E0,3.528013458E0,-4.122427368E0,-1.490749969E0,5.627043792E0
4.796511083E0,4.372407532E0,-4.664150848E0,-1.907034302E0,6.671508869E0
4.806523083E0,5.385051727E0,-5.403762817E0,-2.178419952E0,7.933785237E0
4.816535083E0,6.355034637E0,-6.233487396E0,-2.183209991E0,9.165655254E0
4.826548083E0,6.936874695E0,-7.075785828E0,-2.035467224E0,1.011583424E1
4.836560083E0,7.425308990E0,-7.728728027E0,-1.617386627E0,1.083902164E1
4.846573083E0,7.832162933E0,-8.010741577E0,-1.046922913E0,1.125214666E1
4.856585083E0,8.088879089E0,-8.154293060E0,-5.399272156E-1,1.149843388E1
4.866597083E0,8.395591278E0,-8.246501312E0,-3.611988831E-1,1.177375053E1
4.876610083E0,8.807235260E0,-8.292306061E0,-4.502636719E-1,1.210505969E1
4.886622083E0,9.190887451E0,-8.467890930E0,-6.349795532E-1,1.251322452E1
4.896634083E0,9.431586914E0,-8.538693695E0,-8.819659424E-1,1.275311670E1
4.906647083E0,9.320817261E0,-8.220006409E0,-1.166224823E0,1.248223618E1
4.916659083E0,8.935668182E0,-7.525301056E0,-1.519639893E0,1.178073118E1
4.926672083E0,8.510402527E0,-6.693331146E0,-1.930236053E0,1.099788362E1
4.936684083E0,8.032147064E0,-5.957461395E0,-2.415526886E0,1.028792996E1
4.946696083E0,7.575446777E0,-5.331912231E0,-2.918480988E0,9.712580151E0
4.956709083E0,7.013365631E0,-4.884941711E0,-3.367247772E0,9.186311042E0
4.966721083E0,6.552623749E0,-4.651726685E0,-3.709585876E0,8.850789034E0
4.976733083E0,6.396648102E0,-4.765190735E0,-3.888763275E0,8.873929766E0
4.986746083E0,6.463708649E0,-5.267695770E0,-4.067641296E0,9.277599579E0
4.996758083E0,6.567592621E0,-5.931265869E0,-4.563110962E0,9.956664567E0
5.006771083E0,6.540199585E0,-6.281238098E0,-4.964875488E0,1.033818897E1
5.016783083E0,6.547534332E0,-5.965394897E0,-4.790039062E0,1.006978730E1
5.026795083E0,6.808441772E0,-5.236560516E0,-4.281396790E0,9.597228969E0
5.036808083E0,7.356751556E0,-4.698429565E0,-3.522474976E0,9.413015659E0
5.046820083E0,7.872878265E0,-4.604125671E0,-2.997366943E0,9.600228850E0
5.056835708E0,8.195607147E0,-5.030139771E0,-3.180136871E0,1.012835392E1
5.066848708E0,8.284821625E0,-5.849386139E0,-3.785627747E0,1.082518198E1
5.076860708E0,8.228838043E0,-6.663842468E0,-4.358037415E0,1.145046122E1
5.086873708E0,8.065527649E0,-7.137607269E0,-4.693938904E0,1.174866955E1
5.096885708E0,8.011040955E0,-7.263794861E0,-4.833149414E0,1.184478055E1
5.106897708E0,7.930807800E0,-7.235803070E0,-4.901706848E0,1.180174938E1
5.116910708E0,7.986941071E0,-6.930737457E0,-4.889432373E0,1.165044627E1
5.126922708E0,8.082741852E0,-6.505771179E0,-4.843777313E0,1.145067479E1
5.136934708E0,8.098459167E0,-6.393354950E0,-4.648283844E0,1.131665017E1
5.146947708E0,7.974067841E0,-6.335275726E0,-4.440366211E0,1.111028031E1
5.156959708E0,7.698790283E0,-6.230493622E0,-4.199816437E0,1.075773585E1
5.166972708E0,7.489525452E0,-6.062393188E0,-3.987857208E0,1.042826006E1
5.176984708E0,7.328161011E0,-5.888604584E0,-3.707939301E0,1.010576180E1
5.186996708E0,7.215146027E0,-5.773793335E0,-3.436703339E0,9.859307861E0
5.197009708E0,7.117548981E0,-5.682183838E0,-3.193459167E0,9.651160454E0
5.207021708E0,7.079977112E0,-5.642666016E0,-2.943928070E0,9.520108621E0
5.217033708E0,7.099586334E0,-5.629942474E0,-2.770887909E0,9.475135787E0
5.227046708E0,7.171287231E0,-5.605992279E0,-2.525847473E0,9.446396956E0
5.237058708E0,7.315138092E0,-5.635331268E0,-2.296224976E0,9.515295736E0
5.247071708E0,7.443421326E0,-5.703888702E0,-2.096839600E0,9.609141672E0
5.257083708E0,7.570656738E0,-5.823190613E0,-1.903441772E0,9.738967242E0
5.267095708E0,7.730374603E0,-5.968987427E0,-1.747166748E0,9.921698144E0
5.277108708E0,7.872129822E0,-6.057303772E0,-1.608854370E0,1.006229444E1
5.287120708E0,7.954159241E0,-6.112688599E0,-1.507814484E0,1.014431445E1
5.297132708E0,7.992629242E0,-6.209686890E0,-1.416504364E0,1.022002045E1
5.307145708E0,8.021369476E0,-6.324498138E0,-1.353485413E0,1.030405589E1
5.317157708E0,8.008945312E0,-6.373296661E0,-1.296454010E0,1.031711725E1
5.327170708E0,7.966134338E0,-6.393504639E0,-1.268611908E0,1.029298664E1
5.337182708E0,7.906109161E0,-6.444398804E0,-1.206042023E0,1.027089944E1
5.347194708E0,7.810907135E0,-6.530170441E0,-1.101110229E0,1.024040234E1
5.357207708E0,7.698790283E0,-6.702611847E0,-9.973759460E-1,1.025627302E1
5.367219708E0,7.834258575E0,-6.791377258E0,-9.024732971E-1,1.040734695E1
5.377231708E0,8.303383026E0,-7.244335327E0,-7.577243042E-1,1.104539316E1
5.387244708E0,7.622149658E0,-8.319549408E0,-7.702981567E-1,1.130952815E1
5.397256708E0,6.604416046E0,-8.570128326E0,-8.424481201E-1,1.085242506E1
5.407269708E0,6.373146973E0,-7.614066467E0,-1.172062683E0,9.998236916E0
5.417281708E0,6.304888916E0,-6.912774811E0,-1.396895142E0,9.459883502E0
5.427293708E0,6.633755035E0,-6.524033203E0,-1.438358917E0,9.414807034E0
5.437306708E0,6.975494385E0,-6.321953430E0,-1.549877014E0,9.540793250E0
5.447318708E0,7.093598785E0,-6.165977783E0,-1.554217987E0,9.526490398E0
5.457330708E0,6.739884338E0,-5.925727386E0,-1.326541443E0,9.071934642E0
5.467343708E0,6.921157379E0,-5.683830414E0,-8.993298340E-1,9.000952271E0
5.477355708E0,7.141499176E0,-5.437293091E0,-5.310955811E-1,8.991508725E0
5.487368708E0,7.012018433E0,-5.268743591E0,-2.174977112E-1,8.773560667E0
5.497380708E0,6.590045929E0,-5.338797913E0,-1.862127686E-1,8.483286138E0
5.507392708E0,6.202202454E0,-5.652246094E0,-3.396437073E-1,8.398247378E0
5.517405708E0,6.123765564E0,-5.895340576E0,-4.293072510E-1,8.511160315E0
5.527417708E0,6.327940979E0,-6.006559296E0,-4.323010254E-1,8.735472270E0
5.537429708E0,6.566694489E0,-6.086493073E0,-4.442761230E-1,8.964611297E0
5.547442708E0,6.795119476E0,-6.167774048E0,-3.779640198E-1,9.184657980E0
5.557454708E0,7.139553223E0,-6.291566620E0,-2.968327332E-1,9.520774150E0
5.567467708E0,7.420818329E0,-6.439608765E0,-2.894979858E-1,9.829593827E0
5.577479708E0,7.588918762E0,-6.494843903E0,-2.721340942E-1,9.992434251E0
5.587491708E0,7.700736237E0,-6.474635925E0,-2.475851440E-1,1.006397274E1
5.597504708E0,7.787406006E0,-6.474037170E0,-3.362008667E-1,1.013261470E1
5.607516708E0,7.820636902E0,-6.489904175E0,-4.839436340E-1,1.017425276E1
5.617528708E0,7.877967682E0,-6.541097717E0,-6.029461670E-1,1.025728415E1
5.627541708E0,7.963589630E0,-6.619235229E0,-7.307803345E-1,1.038109217E1
5.637553708E0,7.985294495E0,-6.678661652E0,-8.976832581E-1,1.044869776E1
5.647566708E0,7.927215271E0,-6.639143829E0,-1.066083069E0,1.039497503E1
5.657578708E0,7.854915619E0,-6.481521606E0,-1.170266418E0,1.025082168E1
5.667590708E0,7.809709625E0,-6.306236115E0,-1.241667938E0,1.011444104E1
5.677603708E0,7.835755463E0,-6.185137939E0,-1.318458252E0,1.006942536E1
5.687615708E0,7.796836395E0,-6.167774048E0,-1.452579346E0,1.004699364E1
5.697628708E0,7.738906860E0,-6.190676422E0,-1.494641876E0,1.002243026E1
5.707640708E0,7.668702850E0,-6.105653229E0,-1.461111603E0,9.910744264E0
5.717652708E0,7.648794250E0,-5.978717194E0,-1.395098877E0,9.807926062E0
5.727665708E0,7.644752655E0,-5.914949799E0,-1.385818176E0,9.764700010E0
5.737677708E0,7.633076935E0,-5.907914429E0,-1.449435883E0,9.760542032E0
5.747689708E0,7.647297363E0,-5.897735596E0,-1.431323547E0,9.762844320E0
5.757702708E0,7.611072693E0,-5.892047424E0,-1.335672455E0,9.717441602E0
5.767714708E0,7.576045532E0,-5.878575439E0,-1.233734436E0,9.668309871E0
5.777727708E0,7.504494324E0,-5.881269836E0,-1.177900543E0,9.606988063E0
5.787739708E0,7.505392456E0,-5.910459137E0,-1.133592682E0,9.620263796E0
5.797751708E0,7.568261719E0,-6.023923187E0,-1.059047699E0,9.730766570E0
5.807764708E0,7.609875183E0,-6.113586731E0,-1.082698517E0,9.821322676E0
5.817776708E0,7.628436584E0,-6.157744904E0,-1.089284821E0,9.863944872E0
5.827788708E0,7.663164368E0,-6.232439575E0,-1.109941864E0,9.939786825E0
5.837801708E0,7.644153900E0,-6.308780823E0,-1.169368286E0,9.980041408E0
5.847813708E0,7.648195496E0,-6.318510590E0,-1.193168793E0,9.992102991E0
5.857826708E0,7.714956665E0,-6.339017944E0,-1.196911011E0,1.005665455E1
5.867838708E0,7.709118805E0,-6.360573120E0,-1.218017120E0,1.006831510E1
5.877850708E0,7.697143707E0,-6.363417206E0,-1.194216614E0,1.005809391E1
5.887863708E0,7.747439117E0,-6.344257050E0,-1.218466187E0,1.008747095E1
5.897875708E0,7.604636078E0,-6.475833435E0,-1.185384979E0,1.005843159E1
5.907887708E0,7.413184204E0,-6.476432190E0,-1.198856964E0,9.916487885E0
5.917900708E0,7.283553772E0,-6.285579071E0,-1.399739227E0,9.722033209E0
5.927912708E0,7.304510193E0,-6.334527283E0,-1.410816193E0,9.771003397E0
5.937925708E0,7.328161011E0,-6.577172699E0,-1.237925720E0,9.924394420E0
5.947937708E0,7.281458130E0,-6.611301727E0,-1.254541168E0,9.914777686E0
5.957949708E0,7.155120850E0,-6.459517365E0,-1.245859222E0,9.719736836E0
5.967962708E0,7.156168671E0,-6.370602264E0,-1.090182953E0,9.642811941E0
5.977974708E0,7.149432678E0,-6.466702423E0,-8.476872253E-1,9.677355087E0
5.987986708E0,7.077582092E0,-6.616241455E0,-7.020401001E-1,9.713891062E0
5.997999708E0,7.037764893E0,-6.630761261E0,-6.797364807E-1,9.693253905E0
6.008011708E0,7.061266022E0,-6.597081299E0,-6.454577637E-1,9.685018080E0
6.018024708E0,7.141948242E0,-6.556365967E0,-6.551875305E-1,9.717130754E0
6.028036708E0,7.213349762E0,-6.487808533E0,-6.631210327E-1,9.724392210E0
6.038048708E0,7.243287506E0,-6.470145264E0,-5.716612244E-1,9.729069338E0
6.048058375E0,7.253316650E0,-6.562652893E0,-5.143304443E-1,9.795077908E0
6.058070375E0,7.275021515E0,-6.709647217E0,-5.321434021E-1,9.911028222E0
6.068083375E0,7.243137817E0,-6.781198425E0,-5.483097839E-1,9.937219991E0
6.078095375E0,7.161856842E0,-6.688990173E0,-5.547463989E-1,9.815422891E0
6.088107375E0,7.113956451E0,-6.551575928E0,-4.998106384E-1,9.684076322E0
6.098120375E0,7.150480499E0,-6.505172424E0,-4.333488464E-1,9.676488561E0
6.108132375E0,7.126081238E0,-6.540798340E0,-4.641847229E-1,9.683932269E0
6.118144375E0,7.115303650E0,-6.585106201E0,-4.968168640E-1,9.707625699E0
6.128157375E0,7.153474274E0,-6.638694763E0,-4.945715332E-1,9.771850559E0
6.138169375E0,7.134763184E0,-6.660100250E0,-5.051994324E-1,9.773280283E0
6.148182375E0,7.065457306E0,-6.644682312E0,-5.328918457E-1,9.713725531E0
6.158194375E0,7.012617188E0,-6.620582428E0,-5.707630920E-1,9.660987631E0
6.168206375E0,6.956483917E0,-6.557413788E0,-6.273454285E-1,9.580496144E0
6.178219375E0,6.911876678E0,-6.530320129E0,-6.144721985E-1,9.528730046E0
6.188231375E0,6.873256989E0,-6.578220520E0,-6.048921204E-1,9.533128622E0
6.198243375E0,6.898853760E0,-6.640341339E0,-6.466552734E-1,9.597212061E0
6.208256375E0,6.967411194E0,-6.703659668E0,-6.780899048E-1,9.692454674E0
6.218268375E0,7.053033142E0,-6.775959320E0,-6.707551575E-1,9.803510274E0
6.228281375E0,7.138655090E0,-6.858138428E0,-6.749464417E-1,9.922197937E0
6.238293375E0,7.159761200E0,-6.892267456E0,-6.890171814E-1,9.961941367E0
6.248305375E0,7.165748749E0,-6.867419128E0,-6.953041077E-1,9.949514984E0
6.258318375E0,7.153773651E0,-6.854246521E0,-7.158114624E-1,9.933255200E0
6.268330375E0,7.125931549E0,-6.862329712E0,-7.231462097E-1,9.919345238E0
6.278342375E0,7.151678009E0,-6.847959595E0,-7.376660156E-1,9.929008012E0
6.288355375E0,7.084767151E0,-6.818171539E0,-7.646099854E-1,9.862353530E0
6.298367375E0,7.153623962E0,-6.827452240E0,-7.780819702E-1,9.919367492E0
6.308380375E0,7.257807312E0,-6.832541656E0,-7.632627869E-1,9.997097706E0
6.318392375E0,7.212900696E0,-6.785090332E0,-6.366261292E-1,9.923138621E0
6.328404375E0,7.214547272E0,-6.669680328E0,-5.037025452E-1,9.838091495E0
6.338417375E0,7.034172363E0,-6.685397644E0,-5.432203674E-1,9.719527296E0
6.348429375E0,6.951843567E0,-6.815626831E0,-5.819897461E-1,9.752928286E0
6.358442375E0,6.920558624E0,-6.853198700E0,-6.915618896E-1,9.764154953E0
6.368454375E0,6.772366791E0,-6.746320953E0,-6.574328613E-1,9.581754345E0
6.378466375E0,6.511309662E0,-6.681954803E0,-5.450166321E-1,9.345732536E0
6.388479375E0,6.320306854E0,-6.619983673E0,-5.477110291E-1,9.168993943E0
6.398491375E0,6.220614166E0,-6.523434448E0,-6.162684631E-1,9.034988900E0
6.408503375E0,6.155948639E0,-6.507417755E0,-6.845265198E-1,8.983917077E0
6.418516375E0,6.114484863E0,-6.540498962E0,-7.634124756E-1,8.985980772E0
6.428528375E0,6.028563538E0,-6.662644958E0,-8.581654358E-1,9.026121209E0
6.438541375E0,5.705535278E0,-6.808591461E0,-1.049467621E0,8.944910999E0
6.448553375E0,5.457052002E0,-6.897955627E0,-1.161135406E0,8.871834299E0
6.458565375E0,5.378764801E0,-6.820566559E0,-1.089733887E0,8.754356568E0
6.468578375E0,5.339246979E0,-6.586453400E0,-9.642947388E-1,8.533392703E0
6.478590375E0,5.179379425E0,-6.227649536E0,-8.057743835E-1,8.139954688E0
6.488602375E0,4.902455292E0,-5.756728821E0,-7.385641479E-1,7.597333190E0
6.498615375E0,4.554129639E0,-5.186863861E0,-9.674382019E-1,6.969906036E0
6.508627375E0,4.408033447E0,-4.747677155E0,-1.218316498E0,6.592077997E0
6.518640375E0,4.358187103E0,-4.844525757E0,-1.154399414E0,6.617844259E0
6.528652375E0,4.216581573E0,-5.562582550E0,-1.329235840E0,7.105543801E0
6.538664375E0,4.486919403E0,-5.048102417E0,-1.096170502E0,6.842322231E0
6.548677375E0,3.511398010E0,-3.172951813E0,-1.479972382E0,4.958614468E0
6.558689375E0,1.531764679E0,-2.200723572E0,-2.089355164E0,3.399248780E0
6.568702375E0,1.354682922E-1,-1.623972931E0,-2.186952209E0,2.727342975E0
6.578714375E0,1.751358032E-2,-8.629554749E-1,-1.938169556E0,2.121673892E0
6.588726375E0,1.239422607E-1,-4.966671753E-1,-1.661844177E0,1.738897937E0
6.598739375E0,7.828720093E-2,-8.379574585E-1,-1.408870239E0,1.641102355E0
6.608751375E0,2.107617188E-1,-1.736239471E0,-1.340163116E0,2.203403091E0
6.618763375E0,5.492079163E-1,-2.853366394E0,-1.005459137E0,3.074780836E0
6.628776375E0,1.211281128E0,-4.097728729E0,-5.966592407E-1,4.314462302E0
6.638788375E0,1.836381226E0,-4.890929260E0,3.508703613E-1,5.236085852E0
6.648801375E0,2.749482422E0,-5.208119659E0,3.532653809E-1,5.899911898E0
6.658813375E0,3.720513153E0,-5.738766174E0,3.267704773E-1,6.847074870E0
6.668825375E0,4.536017303E0,-6.707551575E0,6.593788147E-1,8.124129586E0
6.678838375E0,5.862109680E0,-8.190817108E0,6.203100586E-1,1.009151125E1
6.688850375E0,6.592740326E0,-9.890981598E0,6.575825500E-1,1.190496354E1
6.698862375E0,7.847131805E0,-1.168934189E1,-1.833686829E-1,1.408019231E1
6.708875375E0,8.942254486E0,-1.340208023E1,-7.481442261E-1,1.612883721E1
6.718887375E0,9.828262024E0,-1.426069473E1,-1.394799500E0,1.737548889E1
6.728900375E0,1.044138702E1,-1.379396530E1,-1.625020752E0,1.737632683E1
6.738912375E0,1.083925964E1,-1.278132111E1,-1.283431091E0,1.680770401E1
6.748924375E0,1.133652557E1,-1.234692444E1,-1.059047699E0,1.679538440E1
6.758937375E0,1.191761719E1,-1.291559189E1,-1.401834869E0,1.762972644E1
6.768949375E0,1.251188141E1,-1.444002182E1,-2.419418793E0,1.925915351E1
6.778962375E0,1.354817642E1,-1.656964325E1,-4.035757599E0,2.178057624E1
6.788974375E0,1.517184998E1,-1.855676102E1,-5.805377655E0,2.466253882E1
6.798986375E0,1.681453400E1,-1.934098022E1,-6.510860596E0,2.644226494E1
6.808999375E0,1.792507462E1,-1.863714386E1,-5.931864624E0,2.652995381E1
6.819011375E0,1.814107544E1,-1.764545609E1,-4.514162750E0,2.570677739E1
6.829023375E0,1.785352341E1,-1.764844986E1,-3.953728180E0,2.541354062E1
6.839036375E0,1.723066864E1,-1.890733200E1,-5.128485260E0,2.608993113E1
6.849048375E0,1.683354446E1,-2.058923447E1,-6.358926544E0,2.734448284E1
6.859061375E0,1.665316956E1,-2.143198196E1,-6.933431854E0,2.801303954E1
6.869073375E0,1.640049500E1,-2.143617325E1,-7.416327667E0,2.799084986E1
6.879085375E0,1.603196136E1,-2.098635864E1,-7.718698883E0,2.751416629E1
6.889098375E0,1.566731964E1,-2.003344025E1,-7.816295929E0,2.660635478E1
6.899110375E0,1.518547165E1,-1.868249954E1,-7.492818604E0,2.521461221E1
6.909123375E0,1.459659622E1,-1.744023285E1,-6.846612396E0,2.375075671E1
6.919135375E0,1.399529663E1,-1.632909348E1,-6.104455719E0,2.235558098E1
6.929147375E0,1.343186829E1,-1.516212021E1,-5.518873444E0,2.099435493E1
6.939160375E0,1.272369095E1,-1.409468994E1,-5.081782379E0,1.965647751E1
6.949172375E0,1.146705414E1,-1.280302597E1,-4.748575287E0,1.783142652E1
6.959184375E0,9.858948212E0,-1.101694016E1,-4.349505157E0,1.541071138E1
6.969197375E0,8.003556519E0,-8.836723938E0,-3.796704712E0,1.251237682E1
6.979209375E0,5.970334625E0,-6.777605896E0,-3.032543793E0,9.527704817E0
6.989222375E0,4.030967560E0,-5.206323395E0,-2.513423309E0,7.047822323E0
6.999234375E0,2.038161621E0,-4.234095154E0,-2.342628479E0,5.250673553E0
7.009246375E0,1.457968140E-1,-3.719615021E0,-2.511926422E0,4.490720094E0
7.019259375E0,-1.067430267E0,-3.370840302E0,-3.066672821E0,4.680433089E0
7.029271375E0,-1.382375336E0,-3.156635742E0,-3.739972687E0,5.085538956E0
7.039284375E0,-1.301842804E0,-3.147055664E0,-4.472399597E0,5.621486654E0
7.049296250E0,-1.237326965E0,-3.052153015E0,-5.389841766E0,6.316408023E0
7.059308250E0,-1.032103729E0,-2.705024872E0,-6.216422882E0,6.857573267E0
7.069321250E0,-1.059496765E0,-2.032024384E0,-6.446494446E0,6.841706449E0
7.079333250E0,-1.258882141E0,-1.295406189E0,-6.174360352E0,6.433163078E0
7.089345250E0,-1.281335449E0,-6.671626282E-1,-5.724246368E0,5.903721114E0
7.099358250E0,-1.176703033E0,-2.603086853E-1,-5.160518646E0,5.299371976E0
7.109370250E0,-1.009351044E0,1.092727661E-2,-4.734803925E0,4.841206166E0
7.119383250E0,-7.740403748E-1,2.263293457E-1,-4.311334534E0,4.386110912E0
7.129395250E0,-5.879772949E-1,4.114942932E-1,-3.964954834E0,4.029381055E0
7.139407250E0,-3.514691162E-1,4.418811035E-1,-3.559897156E0,3.604394153E0
7.149420250E0,-7.783813477E-2,3.146456909E-1,-3.143762512E0,3.160427727E0
7.159432250E0,7.170089722E-2,2.077679443E-1,-2.625390472E0,2.634574666E0
7.169445250E0,8.711883545E-2,1.682501221E-1,-1.994153137E0,2.003133677E0
7.179457250E0,1.832189941E-1,3.772155762E-2,-1.345252533E0,1.358196044E0
7.189469250E0,3.356021118E-1,-1.477427673E-1,-6.638694763E-1,7.584058177E-1
7.199482250E0,3.504212952E-1,-2.411485291E-1,-1.175056458E-1,4.413108586E-1
7.209494250E0,1.210981750E-1,-1.251397705E-1,3.475772095E-1,3.887603976E-1
7.219506250E0,-4.020639038E-1,2.737806702E-1,1.056502991E0,1.163103524E0
7.229519250E0,-1.339863739E0,8.156538391E-1,2.211950226E0,2.711687634E0
7.239531250E0,-2.773133240E0,1.267264709E0,3.216211853E0,4.431731771E0
7.249544250E0,-4.267176361E0,1.479223938E0,4.106710052E0,6.104257941E0
7.259556250E0,-5.922583923E0,1.654808807E0,5.368286591E0,8.162958620E0
7.269568250E0,-6.760242004E0,9.876461792E-1,6.727460175E0,9.588276036E0
7.279581250E0,-5.565127258E0,-4.929249573E-1,8.336314545E0,1.003532544E1
7.289593250E0,-2.383643188E0,-2.713108063E0,8.966504059E0,9.666483603E0
7.299606250E0,1.525777130E0,-5.767805786E0,8.985364838E0,1.078574804E1
7.309618250E0,5.710025940E0,-8.916058960E0,8.784332886E0,1.375736195E1
7.319630250E0,8.765472107E0,-1.080333435E1,8.599467316E0,1.635531634E1
7.329643250E0,8.962163086E0,-1.036654266E1,9.237440643E0,1.652621807E1
7.339655250E0,5.648803253E0,-7.292235718E0,1.006656647E1,1.365362371E1
7.349667250E0,4.530179443E0,-5.591921539E0,1.017134857E1,1.245987336E1
7.359680250E0,5.611381073E0,-7.623197479E0,1.163380737E1,1.499820694E1
7.369692250E0,8.531358948E0,-1.098370926E1,1.059466827E1,1.748350510E1
7.379705250E0,1.142603943E1,-1.348620529E1,9.137448578E0,1.989786613E1
7.389717250E0,1.305764648E1,-1.462518677E1,7.599995728E0,2.102755703E1
7.399729250E0,1.304267761E1,-1.445963104E1,5.627098389E0,2.026959806E1
7.409742250E0,1.170940018E1,-1.253672974E1,4.081562347E0,1.763345673E1
7.419754250E0,1.301034485E1,-1.074330917E1,3.020718384E0,1.714095985E1
7.429767250E0,1.906869644E1,-1.239467514E1,1.358275452E0,2.278350430E1
7.439779250E0,2.570290054E1,-1.558364365E1,-1.822609863E0,3.011330192E1
7.449791250E0,2.872930710E1,-1.644405441E1,-5.438340912E0,3.354631968E1
7.459804250E0,2.757371017E1,-1.496198639E1,-8.918154602E0,3.261447548E1
7.469816250E0,2.748045410E1,-1.411190414E1,-1.144909149E1,3.294545329E1
7.479829250E0,2.977742752E1,-1.391132126E1,-1.225381805E1,3.507671743E1
7.489841250E0,3.085279129E1,-1.261681320E1,-1.305839493E1,3.579944670E1
7.499853250E0,2.980916153E1,-1.110271179E1,-1.270033951E1,3.425134952E1
7.509866250E0,2.722478577E1,-1.036085449E1,-1.166658920E1,3.137906260E1
7.519878250E0,2.503693542E1,-9.871671753E0,-1.161943726E1,2.931397893E1
7.529890250E0,2.285372543E1,-9.270072784E0,-1.261920822E1,2.770327475E1
7.539903250E0,2.029240173E1,-8.565787354E0,-1.351734055E1,2.584323464E1
7.549915250E0,1.766147278E1,-7.979756012E0,-1.385488861E1,2.382356113E1
7.559928250E0,1.443253738E1,-6.891069946E0,-1.495255600E1,2.189438081E1
7.569940250E0,1.103849533E1,-5.298681335E0,-1.722438171E1,2.113300093E1
7.579952250E0,9.182804260E0,-4.612957306E0,-2.053774155E1,2.296523671E1
7.589965250E0,8.369545441E0,-5.075345764E0,-2.538481201E1,2.720656366E1
7.599977250E0,6.595734100E0,-4.955744476E0,-3.150348816E1,3.256582377E1
7.609990250E0,6.054309998E0,-2.960393829E0,-3.627496582E1,3.689568737E1
7.620002250E0,6.927893372E0,6.975494385E-2,-3.244592834E1,3.317738444E1
7.630014250E0,3.030597839E0,-1.493893433E-1,-1.369816452E1,1.403020141E1
7.640027250E0,-1.733994141E0,-2.027833099E0,-4.759652252E0,5.456476182E0
7.650039250E0,4.128414917E-1,-6.224057007E-1,-1.117620895E1,1.120113715E1
7.660052250E0,1.169068909E0,6.869215393E-1,-8.353678436E0,8.463009319E0
7.670064250E0,1.831441498E0,1.031355286E-1,-6.105802917E0,6.375393648E0
7.680076250E0,3.451223145E0,-7.253915405E-1,-5.610183563E0,6.626559718E0
7.690089250E0,3.449127502E0,-1.154698792E0,-4.788242798E0,6.013075662E0
7.700101250E0,1.840722198E0,-1.121617584E0,-3.993096313E0,4.537741992E0
7.710113250E0,1.928589478E0,-8.849597168E-1,-3.222798157E0,3.858631757E0
7.720126250E0,2.853815460E0,-6.111790466E-1,-2.449057159E0,3.809945338E0
7.730138250E0,3.346890106E0,-4.122427368E-1,-2.102078705E0,3.973707631E0
7.740151250E0,4.040547638E0,-6.933581543E-1,-2.129322052E0,4.619608549E0
7.750163250E0,5.047204285E0,-1.554667053E0,-2.312391357E0,5.765276622E0
7.760175250E0,6.213728485E0,-2.801274719E0,-2.238295441E0,7.174087274E0
7.770188250E0,7.831713867E0,-4.121828613E0,-1.973196716E0,9.067453804E0
7.780200250E0,9.354946289E0,-5.341342621E0,-1.722019043E0,1.090918469E1
7.790213250E0,1.065304688E1,-6.485862579E0,-1.609303436E0,1.257551902E1
7.800225250E0,1.219349350E1,-7.645501099E0,-1.654659119E0,1.448698960E1
7.810237250E0,1.395353348E1,-9.025182037E0,-1.624721375E0,1.669714727E1
7.820250250E0,1.626023666E1,-1.111917755E1,-1.649120636E0,1.976742281E1
7.830262250E0,1.816876785E1,-1.364891693E1,-1.986069946E0,2.281099587E1
7.840274250E0,1.901840103E1,-1.576506638E1,-2.465073853E0,2.482566182E1
7.850287250E0,1.886077881E1,-1.655212967E1,-2.803220673E0,2.524995089E1
7.860299250E0,1.685120773E1,-1.495105911E1,-2.768043823E0,2.269712399E1
7.870312250E0,1.306468185E1,-1.091425369E1,-2.091450806E0,1.715170581E1
7.880324250E0,9.761351166E0,-6.524931335E0,-5.007087708E-1,1.175199620E1
7.890336250E0,7.738607483E0,-3.247197418E0,1.478176117E0,8.521463576E0
7.900349250E0,6.477330322E0,-1.406475220E0,2.343526611E0,7.030369665E0
7.910361250E0,5.316344604E0,-9.132508850E-1,2.134411469E0,5.801142943E0
7.920374250E0,4.412224731E0,-5.197192383E-1,2.203567657E0,4.959187997E0
7.930386250E0,4.037703552E0,-2.814147949E-1,2.252515869E0,4.632069948E0
7.940398250E0,4.112248535E0,-8.343649292E-1,1.980082397E0,4.639771455E0
7.950411250E0,4.738546143E0,-1.598974915E0,1.534309387E0,5.231122788E0
7.960423250E0,5.287903748E0,-2.153721313E0,8.672964478E-1,5.775174860E0
7.970436250E0,5.679339752E0,-2.368973694E0,4.902305603E-1,6.173108000E0
7.980448250E0,6.136339417E0,-2.437381439E0,4.073030090E-1,6.615238881E0
7.990460250E0,6.696624298E0,-2.601440277E0,1.992356873E-1,7.186930038E0
8.000473250E0,7.207960968E0,-2.896327057E0,-2.752775574E-1,7.772978160E0
8.010485250E0,8.061336365E0,-2.904260559E0,-5.104385376E-1,8.583730010E0
8.020497250E0,9.448202362E0,-2.889890442E0,-3.278182983E-1,9.885719978E0
8.030510250E0,1.084898941E1,-3.218756561E0,-1.052311707E-1,1.131689174E1
8.040522250E0,1.232237549E1,-4.000580750E0,-1.407073975E-2,1.295553094E1
8.050534958E0,1.390009460E1,-5.041516113E0,4.754113770E-1,1.479376662E1
8.060546958E0,1.473984833E1,-5.958060150E0,1.519939270E0,1.597096819E1
8.070558958E0,1.482756592E1,-6.199807434E0,3.044219513E0,1.635731016E1
8.080571958E0,1.438912766E1,-6.120622101E0,4.512216797E0,1.627479985E1
8.090583958E0,1.397404083E1,-5.996829529E0,4.666545868E0,1.590636451E1
8.100596958E0,1.327334793E1,-5.654790802E0,3.916156311E0,1.494973928E1
8.110608958E0,1.217762650E1,-5.094954987E0,3.196452942E0,1.358199046E1
8.120620958E0,1.001342697E1,-4.299509125E0,2.752925262E0,1.123979964E1
8.130633958E0,7.708819427E0,-3.393293610E0,2.434088287E0,8.767275761E0
8.140645958E0,6.292913818E0,-2.746488647E0,2.072140961E0,7.172010344E0
8.150658958E0,5.441634064E0,-2.430645447E0,1.731898499E0,6.206358915E0
8.160670958E0,5.015619965E0,-2.425556030E0,1.224004669E0,5.704204863E0
8.170682958E0,4.751718750E0,-2.661315765E0,4.945715332E-1,5.468640936E0
8.180695958E0,5.159021759E0,-2.971021729E0,-4.564009094E-1,5.970827197E0
8.190707958E0,6.076912994E0,-2.723735962E0,-1.504221954E0,6.827173121E0
8.200719958E0,6.721023560E0,-2.213297424E0,-2.052082672E0,7.367624208E0
8.210732958E0,5.835614777E0,-1.913321228E0,-3.336561584E0,6.989123060E0
8.220744958E0,4.606820068E0,-1.497785339E0,-7.909102936E0,9.274700066E0
8.230757958E0,5.637426910E0,-3.680097198E0,-9.544003143E0,1.167954167E1
8.240769958E0,7.739056549E0,-7.353458405E0,-6.544839935E0,1.252203165E1
8.250781958E0,9.518556061E0,-8.600515137E0,-6.821315002E0,1.452935334E1
8.260794958E0,1.032118698E1,-8.427924042E0,-9.142987061E0,1.616016760E1
8.270806958E0,1.149863846E1,-7.209607544E0,-1.039528290E1,1.709558522E1
8.280819958E0,1.380908386E1,-4.871170349E0,-1.038734940E1,1.795316477E1
8.290831958E0,1.550715271E1,-3.286715240E0,-9.042396240E0,1.824936196E1
8.300843958E0,1.560669571E1,-3.029400330E0,-7.343878326E0,1.751224618E1
8.310856958E0,1.391012375E1,-3.397634583E0,-4.382286987E0,1.497464199E1
8.320868958E0,1.061412781E1,-4.477788391E0,2.135459290E0,1.171624873E1
8.330881958E0,7.113357697E0,-5.920637970E0,5.504952393E0,1.076839415E1
8.340893958E0,7.106022949E0,-6.790030060E0,-2.231858826E0,1.007875311E1
8.350905958E0,8.016280060E0,-7.308701477E0,-4.736151123E0,1.183676437E1
8.360918958E0,7.449558563E0,-7.813451843E0,-4.156706085E0,1.156823919E1
8.370930958E0,6.855294342E0,-7.180268555E0,-3.553011475E0,1.054396546E1
8.380943958E0,6.382727051E0,-6.433321838E0,-3.226989441E0,9.619786657E0
8.390955958E0,6.280339966E0,-6.173462219E0,-3.145558777E0,9.351408764E0
8.400967958E0,6.597081299E0,-6.018085327E0,-3.598217468E0,9.627356938E0
8.410980958E0,6.955585785E0,-5.835016022E0,-4.136647797E0,9.976945453E0
8.420992958E0,7.636968842E0,-5.658682709E0,-4.427942047E0,1.048573573E1
8.431004958E0,8.069419556E0,-5.709127808E0,-4.352349243E0,1.080058407E1
8.441017958E0,8.388705597E0,-6.128854980E0,-4.042194214E0,1.114776117E1
8.451029958E0,8.859626312E0,-6.632856903E0,-3.473975830E0,1.159983953E1
8.461042958E0,8.966953125E0,-6.731352081E0,-2.487676849E0,1.148502875E1
8.471054958E0,8.958271179E0,-6.607260132E0,-1.429227905E0,1.122270918E1
8.481066958E0,8.855135651E0,-6.355783081E0,-6.773414612E-1,1.092099800E1
8.491079958E0,8.740623779E0,-6.084996185E0,-2.386038208E-1,1.065282190E1
8.501091958E0,8.788823547E0,-5.887556763E0,-8.247848511E-2,1.057891992E1
8.511104958E0,9.076076202E0,-5.861510925E0,-1.826202393E-1,1.080582342E1
8.521116958E0,8.845705261E0,-6.036646729E0,-3.604504395E-1,1.071529420E1
8.531128958E0,8.309370575E0,-6.230493622E0,-3.643423462E-1,1.039218146E1
8.541141958E0,7.711962891E0,-6.357279968E0,-2.978805542E-1,9.998905592E0
8.551153958E0,7.185208282E0,-6.513255615E0,-1.803749084E-1,9.699600604E0
8.561166958E0,6.772217102E0,-6.720275116E0,4.041595459E-3,9.540704295E0
8.571178958E0,6.868766327E0,-6.574777679E0,1.842668152E-1,9.510079213E0
8.581190958E0,7.326963501E0,-6.007906494E0,1.215472412E-1,9.475975323E0
8.591203958E0,7.598498840E0,-5.544320526E0,8.202941895E-2,9.406561728E0
8.601215958E0,7.668852539E0,-5.563929749E0,5.119354248E-2,9.474768298E0
8.611227958E0,7.400760040E0,-5.918242950E0,2.978805542E-2,9.476166742E0
8.621240958E0,7.395221558E0,-6.314169617E0,5.313949585E-2,9.724241032E0
8.631252958E0,7.492219849E0,-6.546785889E0,1.216969299E-1,9.950305215E0
8.641265958E0,7.321724396E0,-6.480922852E0,2.453398132E-1,9.781114495E0
8.651277958E0,7.325915680E0,-6.340664520E0,2.034269714E-1,9.690946788E0
8.661289958E0,7.153324585E0,-6.180497589E0,2.167492676E-1,9.455981351E0
8.671302958E0,7.032226410E0,-6.201454010E0,3.025209045E-1,9.380925275E0
8.681314958E0,7.183412018E0,-6.457421722E0,4.209246826E-1,9.668344280E0
8.691327958E0,7.279961243E0,-6.561605072E0,4.001179504E-1,9.808801720E0
8.701339958E0,7.279512177E0,-6.542893982E0,3.293151855E-1,9.793324649E0
8.711351958E0,7.343129883E0,-6.546187134E0,5.795947266E-1,9.854443288E0
8.721364958E0,7.376959534E0,-6.406228180E0,7.176077271E-1,9.796644951E0
8.731376958E0,7.484885101E0,-6.214925995E0,6.451583862E-1,9.750130227E0
8.741389958E0,7.610473938E0,-6.195915527E0,5.312452698E-1,9.828067171E0
8.751401958E0,7.740852814E0,-6.342909851E0,5.587879944E-1,1.002325055E1
8.761413958E0,7.809709625E0,-6.645879822E0,6.493496704E-1,1.027525854E1
8.771426958E0,7.704179077E0,-6.996151428E0,9.574090576E-1,1.045070056E1
8.781438958E0,7.037315826E0,-7.465126190E0,1.910028076E0,1.043552252E1
8.791450958E0,5.365143127E0,-7.768096161E0,2.714604950E0,9.823296737E0
8.801463958E0,4.620591431E0,-7.987240448E0,3.065475311E0,9.723323199E0
8.811475958E0,5.782774658E0,-8.943302307E0,2.752476196E0,1.099996655E1
8.821488958E0,6.347999268E0,-9.952653351E0,2.332599335E0,1.203301388E1
8.831500958E0,7.075935516E0,-1.003632935E1,8.289761353E-1,1.230788250E1
8.841512958E0,7.223229218E0,-9.411229248E0,1.262624359E0,1.193065365E1
8.851525958E0,6.999294891E0,-8.270152130E0,1.724563751E0,1.097085527E1
8.861537958E0,6.578070831E0,-7.256011047E0,1.970951385E0,9.990263337E0
8.871550958E0,6.136339417E0,-6.660998383E0,1.709744568E0,9.216658146E0
8.881562958E0,6.059399414E0,-6.426136780E0,1.035546570E0,8.892913576E0
8.891574958E0,6.082451477E0,-6.313870239E0,2.258802795E-1,8.769959821E0
8.901587958E0,6.303092651E0,-6.168223114E0,-5.641767883E-1,8.837095043E0
8.911599958E0,6.509962463E0,-6.130202179E0,-1.254092102E0,9.029492623E0
8.921612958E0,6.647376709E0,-5.926326141E0,-1.871109009E0,9.100000416E0
8.931624958E0,6.638245697E0,-5.820795593E0,-2.208058319E0,9.100741113E0
8.941636958E0,6.575226746E0,-6.152206421E0,-2.048639832E0,9.234726621E0
8.951649958E0,6.611002350E0,-6.612948303E0,-1.813628540E0,9.525003192E0
8.961661958E0,6.838529205E0,-6.912026367E0,-1.386865997E0,9.821659101E0
8.971674958E0,7.018005981E0,-7.184609528E0,-1.153800659E0,1.010951423E1
8.981686958E0,7.194039917E0,-7.555089111E0,-1.100361786E0,1.049020390E1
8.991698958E0,7.384593658E0,-7.917335815E0,-1.117126923E0,1.088413536E1
9.001711958E0,7.591912537E0,-8.067174225E0,-1.109941864E0,1.113321189E1
9.011723958E0,7.694748688E0,-8.082442474E0,-1.157692566E0,1.121941557E1
9.021736958E0,7.782166901E0,-8.112380219E0,-9.930349731E-1,1.128534239E1
9.031748958E0,7.603438568E0,-8.081694031E0,-7.589218140E-1,1.112214093E1
9.041760958E0,7.421117706E0,-7.844736786E0,-6.608757019E-1,1.081894819E1
9.051773958E0,7.238048401E0,-7.555388489E0,-5.888754272E-1,1.047950448E1
9.061785958E0,7.000791779E0,-7.425608368E0,-5.614823914E-1,1.022086139E1
9.071798958E0,6.786138153E0,-7.457941132E0,-6.030958557E-1,1.010130098E1
9.081810958E0,6.665489044E0,-7.508685608E0,-5.649252319E-1,1.005625399E1
9.091822958E0,6.634653168E0,-7.563920746E0,-4.569996643E-1,1.007176094E1
9.101835958E0,6.579118652E0,-7.669900360E0,-2.579136658E-1,1.010834770E1
9.111847958E0,6.510261841E0,-7.810308380E0,-4.939727783E-3,1.016781445E1
9.121859958E0,6.470893707E0,-7.994275818E0,1.514849854E-1,1.028610028E1
9.131872958E0,6.457870789E0,-8.076604614E0,3.168910217E-1,1.034582317E1
9.141884958E0,6.349945221E0,-8.000862122E0,4.611909485E-1,1.022488612E1
9.151897958E0,6.272406464E0,-7.856562195E0,4.659809875E-1,1.006408419E1
9.161909958E0,6.208190002E0,-7.798183594E0,3.769161987E-1,9.974735901E0
9.171921958E0,6.093977509E0,-7.873626709E0,3.403921509E-1,9.962250059E0
9.181934958E0,6.003415833E0,-7.915689240E0,3.498225403E-1,9.940901046E0
9.191946958E0,5.928421783E0,-7.904462585E0,2.555186462E-1,9.883926517E0
9.201959958E0,5.870192871E0,-7.903714142E0,1.821711731E-1,9.846880111E0
9.211971958E0,5.878575439E0,-7.914192352E0,1.440005493E-1,9.859656482E0
9.221983958E0,5.866600342E0,-7.961943054E0,8.487350464E-2,9.890234592E0
9.231996958E0,5.859864349E0,-8.107440491E0,2.529739380E-2,1.000346147E1
9.242008958E0,5.879473572E0,-8.265212402E0,-1.113684082E-1,1.014368515E1
9.252021958E0,5.873186646E0,-8.413703613E0,-2.755769348E-1,1.026453470E1
9.262033958E0,5.823340302E0,-8.556506653E0,-4.077520752E-1,1.035815428E1
9.272045958E0,5.741610260E0,-8.637637939E0,-4.942721558E-1,1.038360162E1
9.282058958E0,5.657335510E0,-8.646918640E0,-5.298980713E-1,1.034675983E1
9.292070958E0,5.533992004E0,-8.669671326E0,-5.493576050E-1,1.030000302E1
9.302083958E0,5.475613403E0,-8.766968994E0,-5.713618469E-1,1.035222400E1
9.312095958E0,5.471871185E0,-8.911119232E0,-6.027964783E-1,1.047438704E1
9.322107958E0,5.476361847E0,-9.036109314E0,-7.253915405E-1,1.059093969E1
9.332120958E0,5.557044067E0,-9.180858307E0,-8.887019348E-1,1.076841164E1
9.342132958E0,5.562881927E0,-9.211095428E0,-9.960287476E-1,1.080657243E1
9.352145958E0,5.538632355E0,-9.083710327E0,-1.022523651E0,1.068811472E1
9.362157958E0,5.436394958E0,-8.885821838E0,-1.017134857E0,1.046645992E1
9.372169958E0,5.210814056E0,-8.763226776E0,-9.864486694E-1,1.024303703E1
9.382182958E0,5.035079498E0,-8.759783936E0,-9.394464111E-1,1.014733461E1
9.392194958E0,4.968468018E0,-8.768166504E0,-8.313711548E-1,1.011224981E1
9.402206958E0,5.027894440E0,-8.793014832E0,-8.044271851E-1,1.016090229E1
9.412219958E0,5.138514404E0,-8.907526703E0,-8.681945801E-1,1.031998663E1
9.422231958E0,5.292993164E0,-9.026529236E0,-8.277786255E-1,1.049662918E1
9.432244958E0,5.400319977E0,-9.151369629E0,-7.104226685E-1,1.064968179E1
9.442256958E0,5.499563599E0,-9.246721344E0,-6.412664795E-1,1.077767499E1
9.452268958E0,5.548362122E0,-9.281898193E0,-6.933581543E-1,1.083599104E1
9.462281958E0,5.446873169E0,-9.201066284E0,-7.873626709E-1,1.072137995E1
9.472293958E0,5.299579468E0,-9.079369354E0,-7.894583130E-1,1.054247290E1
9.482306958E0,5.154830475E0,-9.001231842E0,-7.524851990E-1,1.040003297E1
9.492318958E0,5.066514130E0,-8.933871918E0,-7.698490906E-1,1.029933495E1
9.502330958E0,4.962480469E0,-8.809181213E0,-8.759783936E-1,1.014865628E1
9.512343958E0,4.797972565E0,-8.653205566E0,-1.009650421E0,9.945747899E0
9.522355958E0,4.784201202E0,-8.449928284E0,-1.041234741E0,9.765963287E0
9.532368958E0,4.774770813E0,-8.154442749E0,-1.114282837E0,9.514988129E0
9.542380958E0,4.688250732E0,-7.775730286E0,-1.090781708E0,9.145024939E0
9.552392958E0,4.644092560E0,-7.466623077E0,-9.089099121E-1,8.839919293E0
9.562405958E0,4.809049530E0,-7.231013031E0,-4.246669006E-1,8.694529821E0
9.572417958E0,4.745282135E0,-6.669081573E0,2.071691895E-1,8.187629123E0
9.582430958E0,4.388124847E0,-5.715414734E0,1.133293304E0,7.294241494E0
9.592442958E0,3.891607361E0,-4.650828552E0,1.752106476E0,6.312265138E0
9.602454958E0,3.780987396E0,-4.006867676E0,2.421664124E0,6.017915868E0
9.612467958E0,3.921844482E0,-3.770509186E0,2.955454102E0,6.191309442E0
9.622479958E0,3.901187439E0,-3.486699371E0,2.783910828E0,5.926760957E0
9.632491958E0,4.228706360E0,-3.243754578E0,2.975063324E0,6.103679466E0
9.642504958E0,4.553680573E0,-2.843037872E0,2.997067566E0,6.148274969E0
9.652516958E0,4.808450775E0,-2.229463806E0,2.936293945E0,6.059169073E0
9.662529958E0,5.275778961E0,-1.585203552E0,2.950065308E0,6.248967856E0
9.672541958E0,5.813760223E0,-9.746232605E-1,2.977757721E0,6.604297047E0
9.682553958E0,6.241570587E0,-5.125341797E-1,2.755919037E0,6.842147647E0
9.692566958E0,6.385421448E0,-2.270777893E-1,2.458786926E0,6.846225569E0
9.702578958E0,6.301895142E0,7.753875732E-2,2.272125092E0,6.699436325E0
9.712591958E0,6.305038605E0,3.918850708E-1,1.970652008E0,6.617443241E0
9.722603958E0,6.248755646E0,7.012916565E-1,1.468146973E0,6.457105593E0
9.732615958E0,6.080954590E0,9.482780457E-1,9.770182800E-1,6.231517046E0
9.742628958E0,5.847440186E0,9.268725586E-1,6.788383484E-1,5.959234092E0
9.752640958E0,5.674100647E0,5.852828979E-1,3.483256531E-1,5.714832017E0
9.762653958E0,5.646258545E0,1.401086426E-1,5.010081482E-1,5.670174173E0
9.772665958E0,5.944139099E0,-2.380050659E-1,7.840695190E-1,6.000350077E0
9.782677958E0,6.464157715E0,-7.550299072E-1,9.153465271E-1,6.572158275E0
9.792690958E0,7.146438904E0,-1.782942352E0,8.285270691E-1,7.411945058E0
9.802702958E0,8.448880463E0,-3.261417847E0,4.043092346E-1,9.065533266E0
9.812715958E0,1.063209045E1,-5.008734283E0,-6.093827820E-1,1.176860714E1
9.822727958E0,1.341839630E1,-6.942263489E0,-1.793719940E0,1.521400055E1
9.832739958E0,1.662966843E1,-9.180259552E0,-2.907104645E0,1.921651100E1
9.842752958E0,2.006726990E1,-1.164683029E1,-4.540507965E0,2.364233892E1
9.852764958E0,2.230721191E1,-1.403556290E1,-6.484365692E0,2.714140246E1
9.862777958E0,2.291659470E1,-1.570833435E1,-8.504115601E0,2.905584386E1
9.872789958E0,2.392085632E1,-1.651605469E1,-9.394763489E0,3.054912455E1
9.882801958E0,2.523362640E1,-1.741568390E1,-8.796906738E0,3.189713961E1
9.892814958E0,2.570559494E1,-1.864148483E1,-8.362959137E0,3.283628562E1
9.902826958E0,2.580349136E1,-1.993569351E1,-8.794511719E0,3.377270316E1
9.912839958E0,2.618355103E1,-2.160068115E1,-9.479187927E0,3.524234348E1
9.922851958E0,2.695938766E1,-2.370814865E1,-1.023885818E1,3.733254763E1
9.932863958E0,2.793371155E1,-2.581726273E1,-1.048584457E1,3.945600375E1
9.942876958E0,2.926160019E1,-2.762625092E1,-9.938432922E0,4.145145877E1
9.952888958E0,2.956756393E1,-2.861898651E1,-8.284821625E0,4.197529625E1
9.962901958E0,2.827380432E1,-2.815330490E1,-6.090235291E0,4.036220452E1
9.972913958E0,2.653052948E1,-2.662154022E1,-4.352349243E0,3.783541122E1
9.982925958E0,2.531460800E1,-2.455194397E1,-3.191812592E0,3.540925018E1
9.992938958E0,2.451856339E1,-2.265374130E1,-2.776276703E0,3.349715895E1
1.000295096E1,2.328737366E1,-2.119068375E1,-2.492766266E0,3.158418486E1
1.001296396E1,2.156550430E1,-1.924158691E1,-2.418520660E0,2.900273927E1
1.002297596E1,1.928454758E1,-1.719264771E1,-1.864373016E0,2.590283377E1
1.003298796E1,1.653162231E1,-1.506152939E1,-7.934999084E-1,2.237797681E1
1.004300096E1,1.377151199E1,-1.284733383E1,8.517288208E-2,1.883389985E1
1.005301646E1,1.144894180E1,-1.074136322E1,4.471202087E-1,1.570525609E1
1.006302946E1,9.559121704E0,-8.687783661E0,9.265731812E-2,1.291754536E1
1.007304146E1,8.061186676E0,-6.656507721E0,-5.237608337E-1,1.046738511E1
1.008305346E1,6.811734924E0,-4.855153656E0,-1.007704468E0,8.425420939E0
1.009306646E1,5.701493683E0,-3.358116760E0,-1.404080200E0,6.764275246E0
1.010307846E1,4.404440918E0,-2.142045593E0,-1.614692230E0,5.157003987E0
1.011309146E1,2.545905762E0,-1.224603424E0,-1.792971497E0,3.346047890E0
1.012310346E1,6.930587769E-2,-9.906399536E-1,-1.302591248E0,1.637960555E0
1.013311546E1,-2.277064819E0,-1.321751404E0,-6.137237549E-1,2.703462190E0
1.014312846E1,-4.027674408E0,-1.690135345E0,-7.198530579E-1,4.426839397E0
1.015314046E1,-5.367687836E0,-1.966760101E0,-1.440903625E0,5.895457680E0
1.016315346E1,-6.296206970E0,-2.714754639E0,-1.515149231E0,7.021950737E0
1.017316546E1,-6.528074799E0,-3.886068878E0,-1.030756531E0,7.666795349E0
1.018317746E1,-6.197412415E0,-4.698429565E0,-5.372328186E-1,7.795625704E0
1.019319046E1,-5.679190063E0,-4.855003967E0,2.439926147E-2,7.471603484E0
1.020320246E1,-5.374872894E0,-4.543202362E0,3.447331238E-1,7.046189556E0
1.021321446E1,-5.170248413E0,-4.136049042E0,3.182382202E-1,6.628698658E0
1.022322746E1,-4.887336731E0,-3.629801788E0,2.570155334E-1,6.093240380E0
1.023323946E1,-4.440066833E0,-3.033142548E0,3.013233948E-1,5.385623733E0
1.024325246E1,-3.877985687E0,-2.470013580E0,3.457809448E-1,4.610781337E0
1.025326446E1,-3.355422363E0,-2.036215668E0,4.046086121E-1,3.945724472E0
1.026327646E1,-2.798131256E0,-1.656305695E0,5.698649597E-1,3.301156336E0
1.027328946E1,-2.231559448E0,-1.259181519E0,7.830216980E-1,2.679275769E0
1.028330146E1,-1.762584686E0,-8.647517395E-1,9.126521301E-1,2.165048327E0
1.029331446E1,-1.481618958E0,-5.568420410E-1,9.726773071E-1,1.857786031E0
1.030332646E1,-1.221010895E0,-3.519181824E-1,9.942324829E-1,1.613447316E0
1.031333846E1,-9.593550110E-1,-2.544708252E-1,9.418414307E-1,1.368277281E0
1.032335146E1,-6.735992432E-1,-2.194436646E-1,8.794212341E-1,1.129279934E0
1.033336346E1,-3.113525391E-1,-2.177970886E-1,7.908055115E-1,8.773535960E-1
1.034337646E1,8.023315430E-2,-2.236349487E-1,7.006929016E-1,7.398787007E-1
1.035338846E1,4.005670166E-1,-2.309696960E-1,6.497987366E-1,7.975207416E-1
1.036340046E1,6.860234070E-1,-2.565664673E-1,6.075865173E-1,9.516385044E-1
1.037341346E1,9.418414307E-1,-2.987786865E-1,4.800517273E-1,1.098537048E0
1.038342546E1,1.189725952E0,-3.086581421E-1,2.872526550E-1,1.262232854E0
1.039343846E1,1.409468994E0,-2.607577515E-1,4.909790039E-2,1.434227337E0
1.040345046E1,1.515149231E0,-1.495390320E-1,-2.037263489E-1,1.536080577E0
1.041346246E1,1.628014526E0,-4.700225830E-2,-3.691323853E-1,1.669999769E0
1.042347546E1,1.864672394E0,5.269042969E-2,-5.008584595E-1,1.931486115E0
1.043348746E1,2.099983063E0,1.678010559E-1,-6.843768311E-1,2.215052529E0
1.044350046E1,2.103126526E0,3.225791931E-1,-7.650590515E-1,2.261086878E0
1.045351246E1,2.032174072E0,5.168751526E-1,-7.454498291E-1,2.225440817E0
1.046352446E1,2.013163605E0,7.011419678E-1,-6.167175293E-1,2.219181892E0
1.047353746E1,1.926793213E0,9.437873840E-1,-3.836521912E-1,2.179554018E0
1.048354946E1,2.038011932E0,1.265169067E0,-4.011657715E-2,2.399115409E0
1.049356246E1,2.952610016E0,9.148974609E-1,5.119354248E-1,3.133212592E0
1.050357446E1,5.791157227E0,-1.104553070E0,1.397344208E0,6.058886890E0
1.051358646E1,1.007285339E1,-4.506079559E0,2.424807587E0,1.129808923E1
1.052359946E1,1.550835022E1,-8.823102264E0,3.642824707E0,1.821060768E1
1.053361146E1,2.099399277E1,-1.258463013E1,4.506528625E0,2.488833960E1
1.054362446E1,2.407548477E1,-1.397868118E1,4.439168701E0,2.819111054E1
1.055363646E1,2.299368439E1,-1.253208939E1,3.282973022E0,2.639205748E1
1.056364846E1,2.369572449E1,-1.186103485E1,2.959495697E0,2.666327290E1
1.057366146E1,2.592189514E1,-1.257340347E1,3.595672760E0,2.903384207E1
1.058367346E1,2.444312027E1,-1.189142166E1,2.238145752E0,2.727418805E1
1.059368646E1,2.077829132E1,-1.099703156E1,-6.318360901E-1,2.351746819E1
1.060369846E1,1.929742081E1,-1.153381531E1,-2.842588806E0,2.266053081E1
1.061371046E1,2.071197922E1,-1.243119919E1,-4.024530945E0,2.448913322E1
1.062372346E1,2.261691788E1,-1.248134491E1,-4.474495239E0,2.621698024E1
1.063373546E1,2.403955948E1,-1.213331863E1,-4.496798859E0,2.730089817E1
1.064374846E1,2.513378403E1,-1.199545532E1,-4.406985626E0,2.819609140E1
1.065376046E1,2.529993851E1,-1.201611237E1,-3.719016266E0,2.825429041E1
1.066377246E1,2.515788391E1,-1.209604614E1,-2.164798279E0,2.799856794E1
1.067378546E1,2.499741760E1,-1.231040039E1,-8.382568359E-2,2.786438356E1
1.068379746E1,2.468262222E1,-1.242985199E1,2.071242828E0,2.771322982E1
1.069381046E1,2.379736313E1,-1.200099380E1,3.065924377E0,2.682793761E1
1.070382246E1,2.229778152E1,-1.122006775E1,2.591560822E0,2.509575997E1
1.071383446E1,2.064881058E1,-1.018272491E1,2.051034851E0,2.311423823E1
1.072384746E1,1.919473434E1,-8.939560089E0,2.294877777E0,2.129835733E1
1.073385946E1,1.782463348E1,-7.723788300E0,2.647245026E0,1.960567190E1
1.074387246E1,1.643552216E1,-6.509064331E0,2.470911713E0,1.784936166E1
1.075388446E1,1.495809448E1,-5.356311493E0,2.060465240E0,1.602124154E1
1.076389646E1,1.369502106E1,-4.506528625E0,1.679058380E0,1.451487647E1
1.077390946E1,1.258732452E1,-3.965254211E0,1.427581329E0,1.327410894E1
1.078392146E1,1.123967697E1,-3.390748901E0,1.159339142E0,1.179710065E1
1.079393446E1,1.003558090E1,-2.909200287E0,9.979747009E-1,1.049629858E1
1.080394646E1,9.041348419E0,-2.449655914E0,9.265731812E-1,9.413040592E0
1.081395846E1,8.195158081E0,-2.086361389E0,9.563612366E-1,8.510472762E0
1.082397146E1,7.543413391E0,-1.908082123E0,8.825646973E-1,7.830886503E0
1.083398346E1,7.189698944E0,-1.951791229E0,5.528004456E-1,7.470398131E0
1.084399646E1,6.826404419E0,-2.048041077E0,1.130149841E-1,7.127905859E0
1.085400846E1,6.365662537E0,-1.985022125E0,-2.592608643E-1,6.673019449E0
1.086402046E1,6.133345642E0,-1.976639557E0,-4.215234375E-1,6.457763910E0
1.087403346E1,5.967191162E0,-2.038011932E0,-2.339634705E-1,6.309960531E0
1.088404546E1,5.841003571E0,-2.165846100E0,3.023712158E-1,6.236957623E0
1.089405846E1,5.971681824E0,-2.401905212E0,8.738827515E-1,6.495675755E0
1.090407046E1,6.265520782E0,-2.645897827E0,1.309776306E0,6.926257284E0
1.091408246E1,6.707850952E0,-2.971321106E0,1.705553284E0,7.532126228E0
1.092409546E1,7.434589691E0,-3.373235321E0,2.077080688E0,8.424138211E0
1.093410746E1,8.489745483E0,-3.956272888E0,2.481389923E0,9.689435974E0
1.094412046E1,9.710007935E0,-4.790637817E0,3.023113403E0,1.124160484E1
1.095413246E1,1.079165863E1,-5.716911621E0,3.885470123E0,1.281560972E1
1.096414446E1,1.171673492E1,-6.736291809E0,4.719835052E0,1.431559805E1
1.097415746E1,1.256008118E1,-7.684270477E0,5.153483276E0,1.560006544E1
1.098416946E1,1.340402618E1,-8.082891541E0,5.097948761E0,1.646177801E1
1.099418246E1,1.447160614E1,-7.933951263E0,4.672832794E0,1.715256054E1
1.100419446E1,1.552526505E1,-7.533683624E0,3.848197632E0,1.768046574E1
1.101420646E1,1.567166061E1,-6.831942902E0,2.977009277E0,1.735335629E1
1.102421946E1,1.471006027E1,-5.709726562E0,2.311193848E0,1.594767907E1
1.103423146E1,1.339863739E1,-3.698359222E0,2.045646057E0,1.404941325E1
1.104424446E1,1.158755356E1,-1.672621765E0,1.985321503E0,1.187478684E1
1.105425263E1,9.640702057E0,-1.182540894E-1,1.900447998E0,9.826943715E0
1.106426462E1,7.962392120E0,8.267308044E-1,1.633253632E0,8.170109517E0
1.107427763E1,6.819069672E0,1.008452911E0,1.158890076E0,6.989972437E0
1.108428962E1,6.340215454E0,3.911366272E-1,3.977229309E-1,6.364707644E0
1.109430262E1,6.552623749E0,-8.183482361E-1,-4.326004028E-1,6.617681991E0
1.110431463E1,7.124584351E0,-2.151925049E0,-9.211843872E-1,7.499270915E0
1.111432663E1,7.785310364E0,-3.257226562E0,-1.122665405E0,8.513575039E0
1.112433963E1,8.723708954E0,-4.374054108E0,-1.362317047E0,9.853494557E0
1.113435162E1,9.878557434E0,-5.632487183E0,-1.954335938E0,1.153820774E1
1.114436463E1,1.074525513E1,-6.790628815E0,-2.654130707E0,1.298528233E1
1.115437662E1,1.134445908E1,-7.864046631E0,-3.080294495E0,1.414313244E1
1.116438863E1,1.221055801E1,-8.642427979E0,-3.166664886E0,1.529107762E1
1.117440163E1,1.339519455E1,-9.144633636E0,-2.956950989E0,1.648633132E1
1.118441363E1,1.465542389E1,-9.683513031E0,-2.302811279E0,1.771594801E1
1.119442663E1,1.603779922E1,-1.048434769E1,-1.349743195E0,1.920818464E1
1.120443862E1,1.711615677E1,-1.165626068E1,-4.748126221E-1,2.071368346E1
1.121445063E1,1.788061707E1,-1.310360092E1,8.996292114E-2,2.216819607E1
1.122446362E1,1.820978256E1,-1.442235855E1,1.142124939E-1,2.322958570E1
1.123447563E1,1.805410629E1,-1.530192947E1,-6.264472961E-1,2.367471723E1
1.124448863E1,1.737212448E1,-1.560669571E1,-1.867516479E0,2.342748979E1
1.125450062E1,1.663745224E1,-1.534788391E1,-3.126548309E0,2.285033177E1
1.126451262E1,1.587359070E1,-1.473820175E1,-4.120631104E0,2.204915130E1
1.127452562E1,1.527648239E1,-1.440065369E1,-4.846621399E0,2.154621730E1
1.128453763E1,1.458447144E1,-1.452235062E1,-5.373675385E0,2.127162104E1
1.129455062E1,1.341390564E1,-1.452519470E1,-5.546416168E0,2.053477241E1
1.130456263E1,1.217777618E1,-1.424363022E1,-5.159620514E0,1.943710160E1
1.131457462E1,1.127320724E1,-1.355206833E1,-4.131857758E0,1.810568988E1
1.132458762E1,1.126796814E1,-1.270647675E1,-3.056344299E0,1.725580765E1
1.133459962E1,1.174682236E1,-1.208796295E1,-2.604134674E0,1.705544491E1
1.134461262E1,1.234273315E1,-1.149833908E1,-2.792742462E0,1.709837050E1
1.135462463E1,1.304043228E1,-1.101259918E1,-3.104693756E0,1.734846789E1
1.136463662E1,1.338411758E1,-1.047147446E1,-3.211421814E0,1.729449655E1
1.137464963E1,1.326601318E1,-9.874964905E0,-2.943628693E0,1.679782687E1
1.138466162E1,1.271560776E1,-9.383237457E0,-2.197430420E0,1.595495303E1
1.139467462E1,1.177391602E1,-8.977131958E0,-1.195414124E0,1.485405707E1
1.140468662E1,1.076651093E1,-8.639583893E0,-3.183879089E-1,1.380802441E1
1.141469863E1,9.867330780E0,-8.284522247E0,1.654060364E-1,1.288506441E1
1.142471163E1,9.284891968E0,-7.974666595E0,2.450404358E-1,1.224191860E1
1.143472362E1,8.896300049E0,-7.781418457E0,-1.818717957E-1,1.182064741E1
1.144473663E1,8.399333496E0,-7.686366119E0,-6.475534058E-1,1.140387446E1
1.145474862E1,7.745044098E0,-7.484436035E0,-8.155041504E-1,1.080127483E1
1.146476063E1,7.264842682E0,-7.063810730E0,-7.514373779E-1,1.016070959E1
1.147477362E1,6.923103333E0,-6.508615265E0,-6.137237549E-1,9.521979273E0
1.148478563E1,6.613547058E0,-5.960006104E0,-4.996609497E-1,8.916856986E0
1.149479863E1,6.364614716E0,-5.441783752E0,-4.498146057E-1,8.385920585E0
1.150481062E1,6.147865448E0,-4.975054321E0,-4.279600525E-1,7.920262930E0
1.151482263E1,5.954617310E0,-4.581073608E0,-3.959266663E-1,7.523327763E0
1.152483562E1,5.771548004E0,-4.266577606E0,-3.561094666E-1,7.186185691E0
1.153484763E1,5.602250061E0,-4.064946899E0,-2.630030823E-1,6.926627582E0
1.154486062E1,5.491031342E0,-3.930376740E0,-1.136137390E-1,6.753680078E0
1.155487263E1,5.375621338E0,-3.881578217E0,-8.981323242E-4,6.630532032E0
1.156488462E1,5.291645966E0,-3.974235535E0,4.161346436E-2,6.617990389E0
1.157489762E1,5.241799622E0,-4.192182312E0,-1.751358032E-2,6.712016279E0
1.158490963E1,5.192851410E0,-4.490811310E0,-2.002835083E-1,6.868275291E0
1.159492262E1,5.183421021E0,-4.793781281E0,-4.297563171E-1,7.073392604E0
1.160493463E1,5.198539581E0,-5.107379150E0,-6.734495544E-1,7.318720507E0
1.161494662E1,5.160818024E0,-5.367089081E0,-9.996212769E-1,7.512584813E0
1.162495963E1,4.959337006E0,-5.494623871E0,-1.334025879E0,7.521006586E0
1.163497162E1,4.737648010E0,-5.507048035E0,-1.556313629E0,7.429333674E0
1.164498462E1,4.557871857E0,-5.450615387E0,-1.743873596E0,7.316043950E0
1.165499663E1,4.355492706E0,-5.315895538E0,-1.902992706E0,7.130949679E0
1.166500862E1,4.241729279E0,-5.169949036E0,-2.011217651E0,6.983239703E0
1.167502163E1,4.110901337E0,-5.047353973E0,-2.264640656E0,6.892306525E0
1.168503362E1,3.877087555E0,-4.956642609E0,-2.636916504E0,6.823008318E0
1.169504663E1,3.779490509E0,-4.992418213E0,-3.016676788E0,6.950476744E0
1.170505862E1,3.761378174E0,-5.042414246E0,-3.238964539E0,7.075648272E0
1.171507063E1,3.644022217E0,-4.944218445E0,-3.167712708E0,6.910759563E0
1.172508363E1,3.523971863E0,-4.765340424E0,-2.960543518E0,6.625078487E0
1.173509562E1,3.467389526E0,-4.709656219E0,-2.695893860E0,6.439836608E0
1.174510863E1,3.600762177E0,-4.826862488E0,-2.409389648E0,6.486081113E0
1.175512062E1,3.870501251E0,-4.998705139E0,-2.197879486E0,6.693168699E0
1.176513363E1,4.366869049E0,-5.203628998E0,-2.138602753E0,7.121862240E0
1.177514562E1,5.056185608E0,-5.460045776E0,-2.113455048E0,7.735877780E0
1.178515763E1,6.049819336E0,-5.869444427E0,-2.101030884E0,8.687060646E0
1.179517063E1,7.093598785E0,-6.313271484E0,-2.202220459E0,9.748144209E0
1.180518262E1,8.289162598E0,-6.756649475E0,-2.219734039E0,1.092198461E1
1.181519563E1,9.439520416E0,-7.216942291E0,-2.108515320E0,1.206791774E1
1.182520762E1,1.049033524E1,-7.740104370E0,-1.978735199E0,1.318604346E1
1.183521963E1,1.154429352E1,-8.391250305E0,-2.027683411E0,1.441510647E1
1.184523262E1,1.255349487E1,-9.068741455E0,-2.258653107E0,1.565036162E1
1.185524463E1,1.344563965E1,-9.750423889E0,-2.571652222E0,1.680682560E1
1.186525763E1,1.433913162E1,-1.042447220E1,-2.911595306E0,1.796545862E1
1.187526962E1,1.520044052E1,-1.099298996E1,-3.202889557E0,1.903044198E1
1.188528163E1,1.606070160E1,-1.135329071E1,-3.555406494E0,1.998710237E1
1.189529462E1,1.676169388E1,-1.154773636E1,-4.011807404E0,2.074606457E1
1.190530663E1,1.718710922E1,-1.155222702E1,-4.393513641E0,2.116963946E1
1.191531962E1,1.730281860E1,-1.129206802E1,-4.393962708E0,2.112357072E1
1.192533163E1,1.722498047E1,-1.085228256E1,-3.704496460E0,2.069288001E1
1.193534362E1,1.720417374E1,-1.012988480E1,-2.689307556E0,2.014523604E1
1.194535662E1,1.702334976E1,-9.087751923E0,-1.628463593E0,1.936578338E1
1.195536863E1,1.679462540E1,-7.877967682E0,-4.180805969E-1,1.855523129E1
1.196538162E1,1.671319473E1,-6.869963837E0,1.176553345E0,1.810832844E1
1.197539363E1,1.650737274E1,-6.203699341E0,2.476300507E0,1.780761928E1
1.198540562E1,1.608749588E1,-5.592969360E0,2.571951599E0,1.722509115E1
1.199541863E1,1.577329926E1,-4.744982758E0,1.738185425E0,1.656300454E1
1.200543062E1,1.531300644E1,-4.014501801E0,1.114881592E0,1.586969917E1
1.201544362E1,1.443044174E1,-3.551813965E0,1.140328674E0,1.490481066E1
1.202545563E1,1.351359833E1,-3.233426056E0,1.366957397E0,1.396212578E1
1.203546763E1,1.267399429E1,-3.225492554E0,1.597777405E0,1.317523534E1
1.204548063E1,1.197719330E1,-3.374732208E0,1.621877289E0,1.254880324E1
1.205549383E1,1.140343643E1,-3.523073730E0,1.529519348E0,1.203286501E1
1.206550683E1,1.098011673E1,-3.553610229E0,1.464255066E0,1.163336374E1
1.207551883E1,1.060320053E1,-3.413651276E0,1.433718567E0,1.123104739E1
1.208553083E1,1.025861710E1,-3.239114227E0,1.433419189E0,1.085291557E1
1.209554383E1,9.916728058E0,-3.147953796E0,1.419198761E0,1.050072538E1
1.210555583E1,9.539063416E0,-3.136577454E0,1.360371094E0,1.013323534E1
1.211556883E1,9.301806793E0,-3.237317963E0,1.268911285E0,9.930456840E0
1.212558083E1,9.101373596E0,-3.411555634E0,1.129850464E0,9.785206960E0
1.213559283E1,8.963659973E0,-3.560346222E0,9.377998352E-1,9.690342299E0
1.214560583E1,9.034762115E0,-3.797752533E0,6.574328613E-1,9.822528633E0
1.215561783E1,8.997789001E0,-4.122427368E0,1.838177490E-1,9.898909197E0
1.216563083E1,8.366102600E0,-4.528083801E0,-3.885919189E-1,9.520830810E0
1.217564283E1,8.119565277E0,-5.197192383E0,-6.785389709E-1,9.664293253E0
1.218565483E1,8.161627808E0,-5.777834930E0,-9.598040771E-1,1.004573386E1
1.219566783E1,8.090375977E0,-5.855373688E0,-1.360071716E0,1.007915570E1
1.220567983E1,7.894732819E0,-5.408103790E0,-1.479523315E0,9.683149391E0
1.221569283E1,7.696994019E0,-4.829257507E0,-1.174607391E0,9.162158453E0
1.222570483E1,7.528145142E0,-4.432732086E0,-7.571255493E-1,8.768997783E0
1.223571683E1,7.397317200E0,-4.398752747E0,-6.207591248E-1,8.628711918E0
1.224572983E1,7.434889069E0,-4.693938904E0,-9.271719360E-1,8.841396139E0
1.225574183E1,7.561376038E0,-4.959636383E0,-1.459165649E0,9.159779748E0
1.226575483E1,7.801327057E0,-5.082081757E0,-1.971400452E0,9.517073004E0
1.227576683E1,8.129295044E0,-5.109474792E0,-2.484683075E0,9.917954454E0
1.228577883E1,8.447383575E0,-5.120551758E0,-3.010539551E0,1.032674624E1
1.229579183E1,8.864865417E0,-5.342240753E0,-3.272045746E0,1.085502918E1
1.230580383E1,9.241332550E0,-5.811065826E0,-3.127745819E0,1.135576978E1
1.231581683E1,9.122629395E0,-6.285130005E0,-2.859054565E0,1.144112841E1
1.232582883E1,8.619675293E0,-6.461014252E0,-2.797233124E0,1.112960109E1
1.233584183E1,8.135731659E0,-6.451134796E0,-2.891537018E0,1.077813788E1
1.234585383E1,7.822732544E0,-6.491101685E0,-2.828967133E0,1.055142647E1
1.235586583E1,7.592511292E0,-6.534511414E0,-2.535577240E0,1.033320952E1
1.236587883E1,7.371421051E0,-6.583759003E0,-2.230960693E0,1.013217235E1
1.237589083E1,7.315587158E0,-6.650071106E0,-2.008672943E0,1.008841059E1
1.238590383E1,7.432494049E0,-6.666087799E0,-1.955084381E0,1.017354654E1
1.239591583E1,7.580536194E0,-6.587650909E0,-2.097588043E0,1.025970512E1
1.240592783E1,7.620054016E0,-6.441105652E0,-2.228266296E0,1.022341606E1
1.241594083E1,7.613916779E0,-6.329886932E0,-2.179318085E0,1.013847250E1
1.242595283E1,7.646249542E0,-6.286776581E0,-1.971699829E0,1.009337862E1
1.243596583E1,7.712262268E0,-6.310577087E0,-1.736389160E0,1.011520735E1
1.244597783E1,7.682773590E0,-6.381529541E0,-1.588347015E0,1.011295088E1
1.245598983E1,7.683072968E0,-6.495143280E0,-1.439107361E0,1.016304710E1
1.246600283E1,7.836503906E0,-6.676715698E0,-1.211430817E0,1.036614155E1
1.247601483E1,8.025261383E0,-6.890171814E0,-1.027613068E0,1.062710104E1
1.248602783E1,8.331524506E0,-7.155869293E0,-9.237290955E-1,1.102152627E1
1.249603983E1,8.663983154E0,-7.441625061E0,-9.101074219E-1,1.145734189E1
1.250605183E1,8.912316742E0,-7.648494873E0,-9.624984741E-1,1.178368647E1
1.251606483E1,9.072333984E0,-7.720944214E0,-1.044228516E0,1.195870548E1
1.252607683E1,9.144184570E0,-7.749684448E0,-1.113384705E0,1.203799593E1
1.253608983E1,9.171427917E0,-7.874225464E0,-1.082099762E0,1.213628677E1
1.254610183E1,9.106013947E0,-8.133785706E0,-9.547146606E-1,1.224701760E1
1.255611383E1,8.854686584E0,-8.393795013E0,-7.589218140E-1,1.222445220E1
1.256612683E1,8.455466766E0,-8.639583893E0,-5.754034424E-1,1.210241369E1
1.257613883E1,8.185877380E0,-8.950487366E0,-5.875282288E-1,1.214351687E1
1.258615183E1,7.797734528E0,-9.136700134E0,-8.213420105E-1,1.203987358E1
1.259616383E1,7.322323151E0,-9.101523285E0,-1.003064117E0,1.172434561E1
1.260617583E1,6.903344421E0,-8.939111023E0,-9.105564880E-1,1.133106276E1
1.261618883E1,6.444249115E0,-8.757089539E0,-6.237528992E-1,1.089054781E1
1.262620083E1,6.105952606E0,-8.642877045E0,-3.764671326E-1,1.058884830E1
1.263621383E1,5.883664856E0,-8.601712646E0,-2.604583740E-1,1.042472115E1
1.264622583E1,5.647456055E0,-8.510103149E0,-2.369572449E-1,1.021625001E1
1.265623783E1,5.508844299E0,-8.311915283E0,-1.422042847E-1,9.972739004E0
1.266625083E1,5.522615662E0,-8.066725159E0,-2.050735474E-2,9.776080968E0
1.267626283E1,5.482349396E0,-7.781867523E0,3.847000122E-2,9.519196236E0
1.268627583E1,5.401667175E0,-7.513625336E0,3.008743286E-2,9.253835919E0
1.269628783E1,5.243446198E0,-7.291487274E0,-5.628295898E-2,8.981240586E0
1.270629983E1,5.079537048E0,-7.106472015E0,-1.610650635E-1,8.736680324E0
1.271631283E1,4.956642609E0,-6.909331970E0,-2.601589966E-1,8.507341355E0
1.272632483E1,4.909340973E0,-6.734495544E0,-3.207829285E-1,8.340141528E0
1.273633783E1,4.909939728E0,-6.557862854E0,-3.453318787E-1,8.199532148E0
1.274634983E1,4.881349182E0,-6.350843353E0,-4.014651489E-1,8.020096970E0
1.275636283E1,4.795278168E0,-6.158044281E0,-4.623884583E-1,7.818567974E0
1.276637483E1,4.740192719E0,-6.051316223E0,-4.969665527E-1,7.702910541E0
1.277638683E1,4.746629333E0,-6.030958557E0,-4.662803650E-1,7.688977079E0
1.278639983E1,4.902155914E0,-6.117478638E0,-3.129991150E-1,7.845549435E0
1.279641183E1,5.130281525E0,-6.173911285E0,-1.320254517E-1,8.028349756E0
1.280642483E1,5.260061646E0,-6.068530426E0,-7.694000244E-2,8.031265766E0
1.281643683E1,5.317991180E0,-5.813610535E0,-1.079255676E-1,7.879768117E0
1.282644883E1,5.281018066E0,-5.465135193E0,-2.838098145E-1,7.605090565E0
1.283646183E1,5.187013550E0,-5.043761444E0,-5.442681885E-1,7.255402603E0
1.284647383E1,5.043611755E0,-4.492158508E0,-8.015830994E-1,6.801473595E0
1.285648683E1,4.744533691E0,-3.849993896E0,-9.410929871E-1,6.182128190E0
1.286649883E1,4.446204071E0,-3.230881348E0,-9.707313538E-1,5.581186638E0
1.287651083E1,4.142785034E0,-2.662962341E0,-1.004411316E0,5.026219092E0
1.288652383E1,3.790717163E0,-2.150278473E0,-1.039139099E0,4.480295101E0
1.289653583E1,3.408561859E0,-1.738335114E0,-1.051263885E0,3.968029570E0
1.290654883E1,3.077600098E0,-1.440304871E0,-1.016386414E0,3.546708590E0
1.291656083E1,2.813848572E0,-1.286125488E0,-1.010847931E0,3.254792788E0
1.292657283E1,2.495760040E0,-1.257235565E0,-1.081201630E0,2.996407250E0
1.293658583E1,2.214345245E0,-1.298549652E0,-1.127754822E0,2.803816507E0
1.294659783E1,2.156415710E0,-1.400637360E0,-1.175355835E0,2.827255749E0
1.295661083E1,2.319426727E0,-1.707050171E0,-1.306782532E0,3.162505528E0
1.296662283E1,2.736609192E0,-2.349663849E0,-1.352736969E0,3.852252248E0
1.297663483E1,3.678300934E0,-3.410358124E0,-1.595083008E0,5.263528293E0
1.298664783E1,4.809049530E0,-4.512815552E0,-2.071542206E0,6.912579019E0
1.299665983E1,5.755980377E0,-5.268294525E0,-2.205812988E0,8.108751337E0
1.300667283E1,6.799310760E0,-6.048322449E0,-1.722318420E0,9.261706754E0
1.301668483E1,8.278534698E0,-7.575297089E0,-5.757028198E-1,1.123613352E1
1.302669683E1,1.036609360E1,-9.783505096E0,5.213658142E-1,1.426340390E1
1.303670983E1,1.286230270E1,-1.190848618E1,5.387297058E-1,1.753684987E1
1.304672183E1,1.603839798E1,-1.375669281E1,-3.155438232E-1,2.113235374E1
1.305673458E1,1.940923828E1,-1.552062469E1,-1.051263885E0,2.487395178E1
1.306674658E1,2.198089050E1,-1.712618591E1,-1.828747101E0,2.792508025E1
1.307675958E1,2.295955536E1,-1.774529846E1,-3.041375427E0,2.917681895E1
1.308677158E1,2.211995132E1,-1.671184753E1,-3.843257904E0,2.798836769E1
1.309678358E1,2.039643539E1,-1.526435760E1,-3.729793854E0,2.574736010E1
1.310679658E1,1.878264130E1,-1.523561737E1,-2.991229706E0,2.436922456E1
1.311680858E1,1.836066879E1,-1.670092026E1,-2.879561920E0,2.498653183E1
1.312682158E1,1.883009262E1,-1.842847778E1,-3.711980896E0,2.660751743E1
1.313683358E1,1.964754272E1,-1.968765930E1,-4.785099335E0,2.822281062E1
1.314684558E1,2.029030609E1,-2.000934036E1,-5.457950134E0,2.901481419E1
1.315685858E1,2.029374893E1,-1.967598358E1,-5.205874329E0,2.874163710E1
1.316687058E1,1.942809906E1,-1.912393158E1,-4.255949707E0,2.759146426E1
1.317688358E1,1.818702988E1,-1.865106491E1,-3.174299011E0,2.624321726E1
1.318689558E1,1.708756622E1,-1.785367310E1,-2.359543304E0,2.482551121E1
1.319690758E1,1.625439880E1,-1.667726944E1,-1.865570526E0,2.336272993E1
1.320692058E1,1.567914505E1,-1.542706924E1,-1.776805115E0,2.206778402E1
1.321693258E1,1.505614059E1,-1.409813278E1,-1.981728973E0,2.072129261E1
1.322694558E1,1.414109344E1,-1.296409103E1,-2.224524078E0,1.931286327E1
1.323695758E1,1.310644501E1,-1.213736023E1,-2.359094238E0,1.801831678E1
1.324696958E1,1.219693634E1,-1.124521545E1,-2.458786926E0,1.677097969E1
1.325698258E1,1.106020020E1,-1.017284546E1,-2.858455811E0,1.529658729E1
1.326699458E1,9.611961823E0,-8.795559540E0,-3.777245178E0,1.356536984E1
1.327700758E1,7.738008728E0,-7.080725555E0,-4.824617157E0,1.154514548E1
1.328701958E1,5.702391815E0,-5.241200867E0,-5.150489502E0,9.301344045E0
1.329703258E1,3.861669617E0,-3.599115601E0,-4.616849213E0,7.012946741E0
1.330704458E1,2.516716461E0,-2.342329102E0,-3.490591278E0,4.899448422E0
1.331705658E1,1.507066040E0,-1.423390045E0,-2.275418243E0,3.078118817E0
1.332706958E1,7.164102173E-1,-8.643026733E-1,-1.586101685E0,1.943188427E0
1.333708158E1,2.779719543E-1,-6.435118103E-1,-1.581760712E0,1.730127974E0
1.334709458E1,1.538800049E-1,-6.231541443E-1,-2.116149445E0,2.211354475E0
1.335710658E1,-1.249900818E-1,-5.971083069E-1,-2.739602966E0,2.806703629E0
1.336711858E1,-4.605921936E-1,-4.299060059E-1,-3.017125854E0,3.082209072E0
1.337713158E1,-6.170169067E-1,-1.901046753E-1,-2.993475037E0,3.062309985E0
1.338714358E1,-6.128256226E-1,-8.232879639E-3,-2.718796234E0,2.787019194E0
1.339715658E1,-3.727249146E-1,1.571731567E-1,-2.418670349E0,2.452262939E0
1.340716858E1,-7.634124756E-2,4.180805969E-1,-2.154619446E0,2.196133950E0
1.341718058E1,8.083190918E-2,6.966513062E-1,-1.778601379E0,1.911878581E0
1.342719358E1,1.071771240E-1,8.910969543E-1,-1.356179810E0,1.626273161E0
1.343720558E1,-2.529739380E-2,9.737251282E-1,-8.737330627E-1,1.308506801E0
1.344721858E1,-1.880090332E-1,9.220825195E-1,-4.318519592E-1,1.035412809E0
1.345723058E1,-3.933819580E-1,7.646099854E-1,-9.445358276E-2,8.650429318E-1
1.346724258E1,-6.113287354E-1,7.003935242E-1,2.734812927E-1,9.690541413E-1
1.347725558E1,-7.229965210E-1,7.541317749E-1,6.641688538E-1,1.237965658E0
1.348726758E1,-7.033872986E-1,8.211923218E-1,1.042432251E0,1.501923939E0
1.349728058E1,-5.475613403E-1,8.078700256E-1,1.331481171E0,1.650854175E0
1.350729258E1,-4.067042542E-1,7.737409973E-1,1.556912384E0,1.785513834E0
1.351730458E1,-2.709365845E-1,7.467970276E-1,1.948797455E0,2.104500880E0
1.352731758E1,-1.954934692E-1,7.011419678E-1,2.455793152E0,2.561393714E0
1.353732958E1,-1.782792664E-1,5.867797852E-1,2.854114838E0,2.919257700E0
1.354734258E1,-8.322692871E-2,4.486170959E-1,3.156336365E0,3.189144598E0
1.355735458E1,1.710942078E-1,3.345542908E-1,3.360511780E0,3.381455193E0
1.356736658E1,5.179229736E-1,3.005749512E-1,3.375181274E0,3.427891209E0
1.357737958E1,9.542655945E-1,3.227288818E-1,3.328328705E0,3.477434216E0
1.358739158E1,1.426832886E0,3.188369751E-1,3.246598663E0,3.560605564E0
1.359740458E1,1.710493011E0,2.168989563E-1,3.154091034E0,3.594596187E0
1.360741658E1,2.023492126E0,4.326004028E-2,3.121009827E0,3.719824479E0
1.361742958E1,2.478545837E0,-9.789642334E-2,2.971171417E0,3.870482240E0
1.362744158E1,3.029849396E0,-3.227288818E-1,2.711311798E0,4.078645971E0
1.363745358E1,3.621868286E0,-7.024891663E-1,2.335892487E0,4.366670885E0
1.364746658E1,4.122577057E0,-1.050216064E0,1.977537689E0,4.691401782E0
1.365747858E1,4.580025787E0,-1.174008636E0,1.656904449E0,5.010016452E0
1.366749158E1,5.494923248E0,-1.402433624E0,1.362167358E0,5.832366714E0
1.367750358E1,6.916367340E0,-2.208956451E0,1.014141083E0,7.331037302E0
1.368751558E1,8.452772369E0,-3.457061005E0,3.936813354E-1,9.140876135E0
1.369752858E1,1.027912445E1,-4.927902374E0,-4.417314148E-1,1.140788096E1
1.370754058E1,1.264240997E1,-7.015910339E0,-6.876699829E-1,1.447502739E1
1.371755358E1,1.436592590E1,-9.294172668E0,-4.071533203E-2,1.711032233E1
1.372756558E1,1.462488739E1,-1.037058426E1,8.756790161E-1,1.795001846E1
1.373757758E1,1.608674744E1,-1.114701965E1,6.146218872E-1,1.958104314E1
1.374759058E1,1.878368912E1,-1.315075287E1,-1.344204712E0,2.296902619E1
1.375760258E1,2.086406296E1,-1.624871063E1,-4.447700958E0,2.681625932E1
1.376761558E1,2.171249863E1,-1.982282822E1,-7.264393616E0,3.028446020E1
1.377762758E1,2.053848999E1,-2.107168121E1,-1.015623001E1,3.112867373E1
1.378763958E1,1.953003708E1,-1.900373154E1,-1.155117920E1,2.959719415E1
1.379765258E1,1.814466797E1,-1.488953705E1,-1.217403397E1,2.644114960E1
1.380766458E1,1.580054260E1,-1.108624603E1,-1.316497330E1,2.336404330E1
1.381767758E1,1.436442902E1,-9.720336456E0,-1.455707840E1,2.264354860E1
1.382768958E1,1.242266693E1,-1.014724869E1,-1.708502151E1,2.343474493E1
1.383770258E1,1.118339401E1,-1.112247070E1,-1.779888702E1,2.378188461E1
1.384771458E1,1.102786743E1,-1.202090240E1,-1.701257217E1,2.356997172E1
1.385772658E1,1.215951416E1,-1.201880676E1,-1.555250839E1,2.311246456E1
1.386773958E1,1.370460114E1,-1.145133682E1,-1.529713943E1,2.351492467E1
1.387775158E1,1.519026169E1,-1.117770584E1,-1.531824554E1,2.429678589E1
1.388776458E1,1.575413910E1,-1.077624069E1,-1.512394958E1,2.435270238E1
1.389777658E1,1.494297592E1,-9.386081543E0,-1.408585831E1,2.257880556E1
1.390778858E1,1.354188950E1,-7.006180573E0,-1.267549118E1,1.982769311E1
1.391780158E1,1.171658524E1,-3.995491333E0,-1.147229324E1,1.687767261E1
1.392781358E1,9.424850922E0,-1.479972382E0,-1.058898010E1,1.425288156E1
1.393782658E1,7.597151642E0,-2.859054565E-2,-1.013302826E1,1.266474604E1
1.394783858E1,7.090904388E0,4.302053833E-1,-1.066187851E1,1.281177798E1
1.395785058E1,7.873626709E0,7.812254333E-1,-1.195084808E1,1.433272761E1
1.396786358E1,8.317453766E0,1.892514496E0,-1.289613235E1,1.546194936E1
1.397787558E1,7.723189545E0,3.749403076E0,-1.242356506E1,1.510134594E1
1.398788858E1,7.312743073E0,5.306465149E0,-1.066786606E1,1.397991952E1
1.399790058E1,7.224426727E0,6.028563538E0,-8.855435028E0,1.292109320E1
1.400791258E1,7.043602753E0,6.039191437E0,-8.018375702E0,1.226289207E1
1.401792558E1,6.478078766E0,5.777086487E0,-7.905959473E0,1.174071667E1
1.402793758E1,5.474266205E0,5.269791412E0,-7.436236267E0,1.063183436E1
1.403795058E1,4.472100220E0,4.472249908E0,-6.303541718E0,8.929464587E0
1.404796258E1,4.315675507E0,3.420387268E0,-5.139562225E0,7.532542998E0
1.405797525E1,4.760700073E0,2.414179688E0,-4.517006836E0,6.992558867E0
1.406798725E1,5.132077789E0,1.381177826E0,-4.132007446E0,6.731965549E0
1.407799925E1,5.551954651E0,2.656974792E-1,-3.737128601E0,6.697829930E0
1.408801225E1,5.979615326E0,-8.247848511E-1,-3.256478119E0,6.858623713E0
1.409802425E1,6.559808807E0,-1.728455658E0,-2.778671722E0,7.330734417E0
1.410803725E1,7.187902679E0,-2.660267944E0,-2.448009338E0,8.045851116E0
1.411804925E1,8.125403137E0,-3.914958801E0,-2.112856293E0,9.263543613E0
1.412806125E1,9.711055756E0,-5.616769867E0,-1.698517914E0,1.134626241E1
1.413807425E1,1.165536255E1,-7.496411133E0,-1.461860046E0,1.393487319E1
1.414808625E1,1.365086288E1,-9.262139282E0,-1.536704407E0,1.656788285E1
1.415809925E1,1.531180893E1,-1.079944244E1,-2.055076447E0,1.884947715E1
1.416811125E1,1.618943390E1,-1.173514664E1,-2.878813477E0,2.020146043E1
1.417812325E1,1.622431137E1,-1.171448959E1,-3.765419769E0,2.036261113E1
1.418813625E1,1.551987625E1,-1.075423645E1,-4.209695892E0,1.934532760E1
1.419814825E1,1.352677094E1,-8.648116150E0,-3.984264679E0,1.654200139E1
1.420816125E1,1.087039490E1,-5.900879059E0,-2.870281219E0,1.269741600E1
1.421817325E1,8.687484283E0,-3.492986298E0,-1.047222290E0,9.421783853E0
1.422818625E1,6.931186523E0,-1.863175507E0,5.833369446E-1,7.200906303E0
1.423819825E1,5.587281189E0,-1.163979492E0,1.176553345E0,5.827249533E0
1.424821025E1,4.714146881E0,-1.170865173E0,9.416917419E-1,4.947816630E0
1.425822325E1,4.374652863E0,-1.395547943E0,3.323089600E-1,4.603864787E0
1.426823525E1,4.448299713E0,-1.651515656E0,-2.838098145E-1,4.753464243E0
1.427824825E1,4.734354858E0,-1.997895355E0,-6.840774536E-1,5.183981456E0
1.428826025E1,5.081333313E0,-2.358196106E0,-8.149053955E-1,5.660839860E0
1.429827225E1,5.535189514E0,-2.721939697E0,-8.807684326E-1,6.230813085E0
1.430828525E1,6.061495056E0,-3.131338348E0,-9.755213928E-1,6.891926012E0
1.431829725E1,6.740632782E0,-3.534899139E0,-9.882449341E-1,7.675172329E0
1.432831025E1,7.442373505E0,-4.035607910E0,-9.310638428E-1,8.517155304E0
1.433832225E1,8.231532440E0,-4.626728668E0,-8.300239563E-1,9.479118327E0
1.434833425E1,9.116192780E0,-5.242548065E0,-7.316784668E-1,1.054156698E1
1.435834725E1,1.008198441E1,-5.913602600E0,-6.828799438E-1,1.170826333E1
1.436835925E1,1.089718918E1,-6.573280792E0,-8.337661743E-1,1.275350612E1
1.437837225E1,1.125135269E1,-7.077881470E0,-1.110540619E0,1.333876471E1
1.438838425E1,1.128503265E1,-7.355853424E0,-1.353036346E0,1.353850985E1
1.439839625E1,1.123952728E1,-7.394772491E0,-1.537901917E0,1.354159429E1
1.440840925E1,1.098595459E1,-7.181615753E0,-1.705253906E0,1.323535772E1
1.441842125E1,1.048344955E1,-6.721921692E0,-1.754501495E0,1.257637552E1
1.442843425E1,9.806856537E0,-6.111640778E0,-1.599274292E0,1.166551612E1
1.443844625E1,9.126521301E0,-5.473068695E0,-1.303639069E0,1.072135005E1
1.444845925E1,8.499475250E0,-4.959636383E0,-1.081201630E0,9.899902502E0
1.445847125E1,7.994126129E0,-4.668491821E0,-9.900411987E-1,9.310265841E0
1.446848325E1,7.632029114E0,-4.583169250E0,-1.075363770E0,8.967146481E0
1.447849625E1,7.364685059E0,-4.593946838E0,-1.409019928E0,8.793649454E0
1.448850825E1,7.152276764E0,-4.645439758E0,-1.851050720E0,8.727059197E0
1.449852125E1,7.162305908E0,-4.743635559E0,-2.257754974E0,8.882463722E0
1.450853325E1,7.137457581E0,-4.856051788E0,-2.663860474E0,9.034417098E0
1.451854525E1,7.201374664E0,-5.002896423E0,-2.996917877E0,9.266622170E0
1.452855825E1,7.359146576E0,-5.210963745E0,-3.210972748E0,9.571913469E0
1.453857025E1,7.548353119E0,-5.401218109E0,-3.357368317E0,9.870294519E0
1.454858325E1,7.746990051E0,-5.537883911E0,-3.426973572E0,1.012067986E1
1.455859525E1,7.902666321E0,-5.601351929E0,-3.409010925E0,1.026881852E1
1.456860725E1,8.058641968E0,-5.689668274E0,-3.359314270E0,1.042108573E1
1.457862025E1,8.206384735E0,-5.845793610E0,-3.320095825E0,1.060853852E1
1.458863225E1,8.316855011E0,-6.033503265E0,-3.276087341E0,1.078452536E1
1.459864525E1,8.377478943E0,-6.143374786E0,-3.244652710E0,1.088351866E1
1.460865725E1,8.430917816E0,-6.160139923E0,-3.219205627E0,1.092661814E1
1.461867025E1,8.483009491E0,-6.121520233E0,-3.269201660E0,1.096002461E1
1.462868225E1,8.485404510E0,-6.082750854E0,-3.415896606E0,1.098500329E1
1.463869425E1,8.471184082E0,-6.097869415E0,-3.506308594E0,1.101086605E1
1.464870725E1,8.405770111E0,-6.109844513E0,-3.495381317E0,1.096379778E1
1.465871925E1,8.231682129E0,-6.090085602E0,-3.411555634E0,1.079298129E1
1.466873225E1,8.034991150E0,-6.003864899E0,-3.271446991E0,1.055034795E1
1.467874425E1,7.854316864E0,-5.821244659E0,-3.107986908E0,1.025849723E1
1.468875625E1,7.723488922E0,-5.633984070E0,-2.929258575E0,9.998730591E0
1.469876925E1,7.593110046E0,-5.470074921E0,-2.747386780E0,9.753213518E0
1.470878125E1,7.440876617E0,-5.333558807E0,-2.570005646E0,9.508860258E0
1.471879425E1,7.372319183E0,-5.213807831E0,-2.428699493E0,9.350586263E0
1.472880625E1,7.254963226E0,-5.109025726E0,-2.260299683E0,9.156723756E0
1.473881825E1,7.237599335E0,-5.051694946E0,-2.052232361E0,9.061684370E0
1.474883125E1,7.278015289E0,-5.001399536E0,-1.896855469E0,9.032251355E0
1.475884325E1,7.338339844E0,-5.027744751E0,-1.800605621E0,9.075881750E0
1.476885625E1,7.446115723E0,-5.111271057E0,-1.830094299E0,9.215149284E0
1.477886825E1,7.583829346E0,-5.245841217E0,-1.947450256E0,9.424748279E0
1.478888125E1,7.611372070E0,-5.460045776E0,-2.105072479E0,9.600854900E0
1.479889325E1,7.385940857E0,-5.630840607E0,-2.347717896E0,9.579679932E0
1.480890525E1,6.944658508E0,-5.646557922E0,-2.577490082E0,9.314255380E0
1.481891825E1,6.398444366E0,-5.524262238E0,-2.795287170E0,8.903437198E0
1.482893025E1,6.299350433E0,-5.457800446E0,-2.673141174E0,8.753004360E0
1.483894325E1,6.483317871E0,-5.351820831E0,-2.587968292E0,8.796191034E0
1.484895525E1,6.747817841E0,-5.119054871E0,-2.643951874E0,8.872894110E0
1.485896725E1,6.980284424E0,-4.968018951E0,-2.745740204E0,8.996925709E0
1.486898025E1,7.070247345E0,-4.944368134E0,-2.908302155E0,9.104581000E0
1.487899225E1,7.151079254E0,-5.107229462E0,-3.130889282E0,9.328675950E0
1.488900525E1,7.215445404E0,-5.241799622E0,-3.514541473E0,9.585985469E0
1.489901725E1,7.356901245E0,-5.292544098E0,-3.899241486E0,9.866058135E0
1.490902925E1,7.483388214E0,-5.279970245E0,-4.337679749E0,1.013383691E1
1.491904225E1,7.574698334E0,-5.266797638E0,-4.830005951E0,1.041365304E1
1.492905425E1,7.740403748E0,-5.265001373E0,-5.173242188E0,1.069563109E1
1.493906725E1,7.939190369E0,-5.173990631E0,-5.365442505E0,1.088985289E1
1.494907925E1,7.799381104E0,-5.063071289E0,-5.376070404E0,1.074091102E1
1.495909225E1,7.512278137E0,-5.060975647E0,-5.188211060E0,1.043864605E1
1.496910425E1,7.404801636E0,-5.060526581E0,-4.902155914E0,1.022111291E1
1.497911625E1,7.406448212E0,-5.009333038E0,-4.648882599E0,1.007774786E1
1.498912925E1,7.485034790E0,-4.948559418E0,-4.515809326E0,1.004522374E1
1.499914125E1,7.549101563E0,-4.868475952E0,-4.491559753E0,1.004316193E1
1.500915425E1,7.740104370E0,-4.786446533E0,-4.455634460E0,1.013271753E1
1.501916625E1,7.967182159E0,-4.771178284E0,-4.409380646E0,1.028021262E1
1.502917825E1,8.143066406E0,-4.744982758E0,-4.310885468E0,1.036378914E1
1.503919125E1,8.274343414E0,-4.607867889E0,-4.042493591E0,1.029752203E1
1.504920325E1,8.413254547E0,-4.447401581E0,-3.716920624E0,1.021654207E1
1.505921621E1,8.516988831E0,-4.313280487E0,-3.446882172E0,1.015009773E1
1.506922821E1,8.577762451E0,-4.208199005E0,-3.255430298E0,1.009379879E1
1.507924021E1,8.618627472E0,-4.159550171E0,-3.111729126E0,1.006307385E1
1.508925321E1,8.601862335E0,-4.155508575E0,-3.069816284E0,1.003414467E1
1.509926521E1,8.475974121E0,-4.152664490E0,-3.220253448E0,9.972802612E0
1.510927821E1,8.325686646E0,-4.118535461E0,-3.315904541E0,9.862789433E0
1.511929021E1,8.274044037E0,-4.058360596E0,-3.317251740E0,9.794603338E0
1.512930321E1,8.268804932E0,-4.012256470E0,-3.290008392E0,9.761941006E0
1.513931521E1,8.340356140E0,-4.032464447E0,-3.266357574E0,9.823003709E0
1.514932721E1,8.407117310E0,-4.040996704E0,-3.246598663E0,9.876724087E0
1.515934021E1,8.454269257E0,-4.062102814E0,-3.216062164E0,9.915563715E0
1.516935221E1,8.512049103E0,-4.098626862E0,-3.229833527E0,9.984264955E0
1.517936521E1,8.507408752E0,-4.099824371E0,-3.224444733E0,9.979058442E0
1.518937721E1,8.511600037E0,-4.111051025E0,-3.180286560E0,9.973078678E0
1.519938921E1,8.523126068E0,-4.137994995E0,-3.119662628E0,9.974917316E0
1.520940221E1,8.506809998E0,-4.166884918E0,-2.999612274E0,9.936116950E0
1.521941421E1,8.511899414E0,-4.173471222E0,-2.919828186E0,9.919460182E0
1.522942721E1,8.552165680E0,-4.210144958E0,-2.866089935E0,9.953860051E0
1.523943921E1,8.574469299E0,-4.233197021E0,-2.855162659E0,9.979651026E0
1.524945221E1,8.435109100E0,-4.199517059E0,-2.834056549E0,9.839658815E0
1.525946421E1,8.391549683E0,-4.173022156E0,-2.761158142E0,9.770169613E0
1.526947621E1,8.492439880E0,-4.217779083E0,-2.759361877E0,9.875488519E0
1.527948921E1,8.575068054E0,-4.312382355E0,-2.802023163E0,9.998988324E0
1.528950121E1,8.571924591E0,-4.336033173E0,-2.771037598E0,9.997885988E0
1.529951421E1,8.570427704E0,-4.328099670E0,-2.694396973E0,9.972183955E0
1.530952621E1,8.466992798E0,-4.356839905E0,-2.732866974E0,9.906592900E0
1.531953821E1,8.400980072E0,-4.371359711E0,-2.841540985E0,9.887345805E0
1.532955121E1,8.397237854E0,-4.372407532E0,-2.935246124E0,9.911973618E0
1.533956321E1,8.258925476E0,-4.350702667E0,-3.003653870E0,9.806140948E0
1.534957621E1,8.238717499E0,-4.425247650E0,-2.927761688E0,9.799544443E0
1.535958821E1,8.102201385E0,-4.605023804E0,-2.805016937E0,9.732421669E0
1.536960021E1,7.945776672E0,-4.663851471E0,-2.701132965E0,9.601197673E0
1.537961321E1,7.910300446E0,-4.630770264E0,-2.715802460E0,9.559940867E0
1.538962521E1,7.863747253E0,-4.665797424E0,-2.869981842E0,9.583578781E0
1.539963821E1,7.819140015E0,-4.747677155E0,-3.084934845E0,9.653818515E0
1.540965021E1,7.718998260E0,-4.775668945E0,-3.245401154E0,9.639635712E0
1.541966321E1,7.578590240E0,-4.797523499E0,-3.344195709E0,9.572612323E0
1.542967521E1,7.492519226E0,-4.835245056E0,-3.402873688E0,9.544474236E0
1.543968721E1,7.436835022E0,-4.862488403E0,-3.422632599E0,9.521802483E0
1.544970021E1,7.376660156E0,-4.877606964E0,-3.458408203E0,9.495617518E0
1.545971221E1,7.412735138E0,-4.862338715E0,-3.587888947E0,9.563677488E0
1.546972521E1,7.533983002E0,-4.863087158E0,-3.732188873E0,9.712865199E0
1.547973721E1,7.605534210E0,-4.916376343E0,-3.918850708E0,9.867740260E0
1.548974921E1,7.604935455E0,-4.990023193E0,-4.087400208E0,9.972071761E0
1.549976221E1,7.627837830E0,-5.055287476E0,-4.253854065E0,1.009133865E1
1.550977421E1,7.662116547E0,-5.163512421E0,-4.447102203E0,1.025410203E1
1.551978721E1,7.676187286E0,-5.240302734E0,-4.578379211E0,1.036080017E1
1.552979921E1,7.587571564E0,-5.258714447E0,-4.612657928E0,1.031997738E1
1.553981221E1,7.506589966E0,-5.275479584E0,-4.567451935E0,1.024896068E1
1.554982421E1,7.529043274E0,-5.327870636E0,-4.536915436E0,1.027892503E1
1.555983621E1,7.526797943E0,-5.383554840E0,-4.507127380E0,1.029317965E1
1.556984921E1,7.487429810E0,-5.430407410E0,-4.377197571E0,1.023282895E1
1.557986121E1,7.489076385E0,-5.445825348E0,-4.226011963E0,1.017852916E1
1.558987421E1,7.547155609E0,-5.465883636E0,-4.122726746E0,1.018981440E1
1.559988621E1,7.555837555E0,-5.467979279E0,-4.014651489E0,1.015415704E1
1.560989821E1,7.537126465E0,-5.487438812E0,-3.805835724E0,1.006998737E1
1.561991121E1,7.584577789E0,-5.567073212E0,-3.586541748E0,1.006883340E1
1.562992321E1,7.699987793E0,-5.687722321E0,-3.426075439E0,1.016749675E1
1.563993621E1,7.812104645E0,-5.847589874E0,-3.300037537E0,1.030114237E1
1.564994821E1,7.916587372E0,-5.947581940E0,-3.191513214E0,1.040345342E1
1.565996021E1,8.126750336E0,-5.932463379E0,-3.122057648E0,1.053496259E1
1.566997321E1,8.297844543E0,-5.782774658E0,-3.015030212E0,1.055391463E1
1.567998521E1,8.219707031E0,-5.537285156E0,-2.856958923E0,1.031442315E1
1.568999821E1,7.856711884E0,-5.255570984E0,-2.737806702E0,9.840962022E0
1.570001021E1,7.499105530E0,-4.941224670E0,-2.547252960E0,9.334922744E0
1.571002321E1,7.304061127E0,-4.698579254E0,-2.158810730E0,8.949101615E0
1.572003521E1,7.118447113E0,-4.576582947E0,-1.590292969E0,8.610832277E0
1.573004721E1,6.930737457E0,-4.552183685E0,-1.236279144E0,8.383667701E0
1.574006021E1,6.801556091E0,-4.652774506E0,-1.434467010E0,8.364638155E0
1.575007221E1,6.840624847E0,-4.846172333E0,-2.351909180E0,8.706951899E0
1.576008521E1,6.762786713E0,-5.117557983E0,-3.606600037E0,9.215869338E0
1.577009721E1,6.792425079E0,-5.364544373E0,-4.220323792E0,9.629460405E0
1.578010921E1,6.934779053E0,-5.389692078E0,-3.734134827E0,9.543778293E0
1.579012221E1,6.978488159E0,-5.363795929E0,-2.481689301E0,9.144855687E0
1.580013421E1,7.246880035E0,-5.268144836E0,-1.304986267E0,9.053927845E0
1.581014721E1,7.543413391E0,-5.018314362E0,-5.837860107E-1,9.078952072E0
1.582015921E1,7.492668915E0,-5.004393311E0,-2.972817993E-1,9.015121538E0
1.583017121E1,7.292834473E0,-5.283113708E0,-3.477268982E-1,9.012082950E0
1.584018421E1,6.879843292E0,-5.563929749E0,-6.325845337E-1,8.870722697E0
1.585019621E1,6.510411530E0,-5.783223724E0,-7.610174561E-1,8.741297529E0
1.586020921E1,6.165528717E0,-5.799390106E0,-8.235873413E-1,8.504408626E0
1.587022121E1,5.927373962E0,-5.579197998E0,-9.734257507E-1,8.198095516E0
1.588023421E1,5.731431427E0,-5.171296234E0,-1.247954865E0,7.819782752E0
1.589024621E1,5.586233368E0,-4.832850037E0,-1.491498413E0,7.535715642E0
1.590025821E1,5.353168030E0,-4.648882599E0,-1.774110718E0,7.308624098E0
1.591027121E1,5.027145996E0,-4.536765747E0,-2.043700104E0,7.073270137E0
1.592028321E1,4.758155365E0,-4.315974884E0,-2.228865051E0,6.799670661E0
1.593029621E1,4.412524109E0,-4.001179504E0,-2.348316650E0,6.402686743E0
1.594030821E1,3.936364288E0,-3.884422302E0,-2.287393341E0,5.984636057E0
1.595032021E1,3.587589569E0,-3.677103424E0,-2.292632446E0,5.625660143E0
1.596033321E1,3.331322479E0,-3.361260223E0,-2.340682526E0,5.279637718E0
1.597034521E1,3.133583679E0,-3.085683289E0,-2.342778168E0,4.982910553E0
1.598035821E1,2.972368927E0,-2.914888458E0,-2.365530853E0,4.788244770E0
1.599037021E1,2.830763397E0,-2.841690674E0,-2.305206299E0,4.626273163E0
1.600038321E1,2.755469971E0,-2.956651611E0,-2.017055511E0,4.516958761E0
1.601039521E1,2.832559662E0,-3.265010376E0,-1.960473175E0,4.746276653E0
1.602040721E1,3.174598389E0,-3.718716888E0,-2.109114075E0,5.324968770E0
1.603042021E1,3.512894897E0,-4.190685425E0,-1.986968079E0,5.818102529E0
1.604043221E1,3.849993896E0,-4.625980225E0,-1.734293518E0,6.263379283E0
1.605044521E1,4.363426208E0,-4.994663544E0,-1.462907867E0,6.791630999E0
1.606045771E1,4.923262024E0,-5.348078613E0,-1.262474670E0,7.377960159E0
1.607046971E1,5.565576324E0,-5.690865784E0,-1.171014862E0,8.045673931E0
1.608048271E1,5.976771240E0,-6.035748596E0,-1.045575714E0,8.558345877E0
1.609049471E1,6.519243164E0,-6.578819275E0,-9.081614685E-1,9.306242622E0
1.610050771E1,7.355404358E0,-7.314988403E0,-7.891589355E-1,1.040354749E1
1.611051971E1,8.128097534E0,-8.071964264E0,-6.792874146E-1,1.147536527E1
1.612053271E1,8.518186340E0,-8.650960236E0,-4.766088867E-1,1.215013447E1
1.613054471E1,9.112151184E0,-8.947942657E0,-3.141966248E-1,1.277480710E1
1.614055671E1,9.821076965E0,-9.218879242E0,-2.022294617E-1,1.347153235E1
1.615056971E1,1.065619034E1,-9.722581787E0,4.984634399E-2,1.442516807E1
1.616058171E1,1.176029434E1,-1.040725800E1,-8.023315430E-2,1.570420260E1
1.617059471E1,1.310285248E1,-1.115450409E1,-6.991960144E-1,1.722197955E1
1.618060671E1,1.462324081E1,-1.214514404E1,-1.576072540E0,1.907426802E1
1.619061871E1,1.615216141E1,-1.372136627E1,-2.708617401E0,2.136597339E1
1.620063171E1,1.711570770E1,-1.549996765E1,-4.356989594E0,2.349850646E1
1.621064371E1,1.776071640E1,-1.742032425E1,-5.928571472E0,2.557457143E1
1.622065671E1,1.829764984E1,-1.896226776E1,-6.899153137E0,2.723912448E1
1.623066871E1,1.858190872E1,-1.978106506E1,-7.508236542E0,2.815939422E1
1.624068171E1,1.820738754E1,-2.025078827E1,-8.517288208E0,2.853327155E1
1.625069371E1,1.767254974E1,-2.066976700E1,-9.865384827E0,2.892894917E1
1.626070571E1,1.726315109E1,-2.055540482E1,-1.023781036E1,2.872897168E1
1.627071871E1,1.659269531E1,-2.026351181E1,-9.383985901E0,2.782061538E1
1.628073071E1,1.588257202E1,-1.997266663E1,-7.746990051E0,2.666794632E1
1.629074371E1,1.546059952E1,-1.933663925E1,-6.521787872E0,2.560213804E1
1.630075571E1,1.514804947E1,-1.848146759E1,-6.095025330E0,2.466125262E1
1.631076771E1,1.497411118E1,-1.775802200E1,-5.664819946E0,2.390944449E1
1.632078071E1,1.489941650E1,-1.693608124E1,-5.584287415E0,2.323806631E1
1.633079271E1,1.414139282E1,-1.597478027E1,-6.024072876E0,2.216894336E1
1.634080571E1,1.263118332E1,-1.476784012E1,-6.251899109E0,2.041377320E1
1.635081771E1,1.128144012E1,-1.305614960E1,-5.989195404E0,1.826484041E1
1.636083071E1,9.776170349E0,-1.098924774E1,-5.816454620E0,1.581670689E1
1.637084271E1,8.671617279E0,-8.730444946E0,-6.024671631E0,1.370088623E1
1.638085471E1,7.280559998E0,-6.486760712E0,-6.108497314E0,1.150644853E1
1.639086771E1,5.137316895E0,-4.045337677E0,-5.343587952E0,8.444567129E0
1.640087971E1,3.152893524E0,-1.762884064E0,-3.291654968E0,4.887073790E0
1.641089271E1,8.812174988E-1,9.445358276E-2,-9.921368408E-1,1.330338780E0
1.642090471E1,-1.057700500E0,1.637744293E0,-5.980064392E-1,2.039251927E0
1.643091671E1,-2.011067963E0,1.915416870E0,-1.792372742E0,3.305422240E0
1.644092971E1,-2.841091919E0,1.619033203E0,-2.170187073E0,3.924638039E0
1.645094171E1,-3.914659424E0,1.216220856E0,-2.423011322E0,4.761799601E0
1.646095471E1,-4.296215973E0,5.034031677E-1,-2.012265472E0,4.770754528E0
1.647096671E1,-3.883823547E0,-5.697152710E-1,-1.449286194E0,4.184386611E0
1.648097971E1,-2.986888733E0,-1.807491302E0,-7.077282715E-1,3.562219591E0
1.649099171E1,-2.020348663E0,-2.811603241E0,1.332229614E-1,3.464775586E0
1.650100371E1,-1.150208130E0,-3.280278625E0,7.701484680E-1,3.560384146E0
1.651101671E1,-2.987786865E-1,-3.260220337E0,1.148262177E0,3.469410811E0
1.652102871E1,2.568658447E-1,-2.758164368E0,1.335373077E0,3.075170239E0
1.653104171E1,3.881428528E-1,-1.909429321E0,1.448986816E0,2.428196450E0
1.654105371E1,3.692820740E-1,-1.021026764E0,1.555265808E0,1.896764782E0
1.655106571E1,5.578898621E-1,-4.156855774E-1,1.770967255E0,1.902724524E0
1.656107871E1,7.083270264E-1,-1.008901978E-1,1.904339905E0,2.034309829E0
1.657109071E1,8.448431396E-1,1.429527283E-1,1.770069122E0,1.966555392E0
1.658110371E1,8.761280823E-1,3.254232788E-1,1.472188568E0,1.743800421E0
1.659111571E1,7.132667542E-1,6.845265198E-1,1.078956299E0,1.463377160E0
