"Time (s)","Acceleration x (m/s^2)","Acceleration y (m/s^2)","Acceleration z (m/s^2)","Absolute acceleration (m/s^2)"
2.302833338E-3,-5.881419525E0,3.332370300E0,7.579039307E0,1.015566956E1
1.231483335E-2,-5.847290497E0,3.282973022E0,7.756719818E0,1.025355647E1
2.232683334E-2,-5.771697693E0,3.091521149E0,7.709418182E0,1.011459965E1
3.233983333E-2,-5.739364929E0,2.994672546E0,7.629185028E0,1.000564029E1
4.235183334E-2,-5.689518585E0,2.984643402E0,7.636968842E0,9.980080714E0
5.236383335E-2,-5.631589050E0,2.927911377E0,7.881859589E0,1.011984046E1
6.237570834E-2,-5.467979279E0,2.758912811E0,8.043373718E0,1.010971108E1
7.238770835E-2,-5.222489777E0,2.423310699E0,8.033943329E0,9.883879786E0
8.240070834E-2,-4.891827393E0,2.449805603E0,8.125103760E0,9.795347561E0
9.241270833E-2,-4.616998901E0,2.515668640E0,8.129295044E0,9.681461949E0
1.024247083E-1,-4.555626526E0,2.322719879E0,8.264314270E0,9.718418134E0
1.124367084E-1,-4.643643494E0,2.373913422E0,8.199049988E0,9.717165766E0
1.224487083E-1,-4.918172607E0,2.481838989E0,8.203091583E0,9.881227560E0
1.324607084E-1,-5.050198059E0,2.601889343E0,8.174650726E0,9.954860275E0
1.424737083E-1,-5.049898682E0,2.719394989E0,8.103249207E0,9.927700313E0
1.524857083E-1,-5.009632416E0,2.870281219E0,8.074658661E0,9.926481940E0
1.624977083E-1,-4.876259766E0,2.945574646E0,8.030650177E0,9.846098799E0
1.725097084E-1,-4.852908325E0,2.889141998E0,8.045169983E0,9.829680603E0
1.825217083E-1,-4.934788055E0,2.911146240E0,7.988587646E0,9.830790313E0
1.925347083E-1,-4.986730042E0,2.911146240E0,8.031398621E0,9.891694129E0
2.025467083E-1,-4.860991516E0,2.713706818E0,8.110583954E0,9.837429303E0
2.125587083E-1,-4.436623993E0,2.410287781E0,8.093220062E0,9.539042437E0
2.225707083E-1,-4.158502350E0,2.305655365E0,8.218808899E0,9.495157090E0
2.325827084E-1,-4.092938690E0,2.466570740E0,8.266559601E0,9.548409604E0
2.425957083E-1,-4.199966125E0,2.693498840E0,8.212971039E0,9.609762991E0
2.526077083E-1,-4.506229248E0,2.775228882E0,8.191415863E0,9.752296715E0
2.626197083E-1,-4.890629883E0,2.818488922E0,8.249495087E0,9.995814606E0
2.726317083E-1,-5.422773285E0,2.866688690E0,8.471633148E0,1.045910810E1
2.826437083E-1,-6.094576263E0,3.092868347E0,8.540190582E0,1.093821510E1
2.926567083E-1,-6.216871948E0,3.234174500E0,8.591084747E0,1.108675420E1
3.026687083E-1,-5.723797302E0,2.947520599E0,8.727151794E0,1.084494867E1
3.126807083E-1,-5.152585144E0,2.502046967E0,8.946894836E0,1.062338458E1
3.226927083E-1,-4.826413422E0,2.350262604E0,9.164841614E0,1.062131454E1
3.327047083E-1,-4.754562836E0,2.334844666E0,9.441017303E0,1.082544110E1
3.427167083E-1,-5.197192383E0,2.165397034E0,9.711355133E0,1.122542523E1
3.527297083E-1,-6.078409882E0,1.941013641E0,9.617051239E0,1.154132900E1
3.627417083E-1,-6.285728760E0,1.782493286E0,9.766141205E0,1.175011414E1
3.727537083E-1,-6.574328613E0,1.668729858E0,1.053943314E1,1.253339965E1
3.827657083E-1,-7.081923065E0,1.754651184E0,1.089419540E1,1.311167146E1
3.927777083E-1,-6.419999542E0,1.786534882E0,1.050320847E1,1.243887009E1
4.027907084E-1,-5.737868042E0,1.223106537E0,9.640702057E0,1.128548871E1
4.128027083E-1,-4.726571045E0,1.043779449E0,8.629405060E0,9.894270113E0
4.228147083E-1,-4.422702942E0,1.240769806E0,6.948400726E0,8.329470792E0
4.328267083E-1,-3.959566040E0,1.171763306E0,5.724994812E0,7.058807128E0
4.428387083E-1,-4.064797211E0,8.280780029E-1,5.895939331E0,7.209049184E0
4.528517083E-1,-3.351680145E0,3.790118408E-1,5.927972717E0,6.820430361E0
4.628637084E-1,-2.514022064E0,3.327580261E-1,4.891827393E0,5.510082584E0
4.728757083E-1,-2.484234009E0,7.699987793E-1,3.393143921E0,4.275247642E0
4.828877083E-1,-2.246827698E0,8.196954346E-1,2.768043823E0,3.658169203E0
4.928997083E-1,-2.092049561E0,6.783892822E-1,2.286046143E0,3.172205912E0
5.029127084E-1,-2.065404968E0,4.930746460E-1,1.721569977E0,2.733646553E0
5.129247083E-1,-2.100881195E0,3.008743286E-1,1.158141632E0,2.417750855E0
5.229367084E-1,-2.337089996E0,3.330574036E-1,1.200503540E0,2.648419460E0
5.329487083E-1,-5.060227203E0,-6.137237549E-1,1.146810196E1,1.254989716E1
5.429607083E-1,-8.105494537E0,-1.641935577E0,2.343870895E1,2.485494059E1
5.529737083E-1,-5.173391876E0,2.227368164E-1,1.069001999E1,1.187813633E1
5.629857084E-1,-3.633843384E0,3.757186890E-1,6.643335114E0,7.581548899E0
5.729977083E-1,-3.852538605E0,9.433383179E-1,7.798482971E0,8.749187250E0
5.830097084E-1,-3.258424072E0,2.235301666E0,7.945926361E0,8.874212456E0
5.930217083E-1,-2.552791443E0,2.602039032E0,6.921157379E0,7.822389069E0
6.030337084E-1,-2.346819763E0,2.266885986E0,7.686964874E0,8.350794217E0
6.130467083E-1,-2.697390747E0,1.148411865E0,7.767347717E0,8.302195927E0
6.230587083E-1,-2.274669800E0,6.101312256E-1,6.626120911E0,7.032201727E0
6.330707083E-1,-1.626667328E0,3.436853027E-1,6.339766388E0,6.554144035E0
6.430827084E-1,-1.338067474E0,2.047741699E-1,6.878196716E0,7.010131746E0
6.530947083E-1,-1.194515991E0,1.543290710E-1,8.022716675E0,8.112624037E0
6.631077083E-1,-9.160949707E-1,-3.817062378E-2,9.159153442E0,9.204932307E0
6.731197083E-1,-2.767744446E-1,-6.092330933E-2,9.426347809E0,9.430607019E0
6.831317083E-1,2.582130432E-1,2.225871277E-1,9.134155426E0,9.140514994E0
6.931437083E-1,5.776487732E-1,5.920188904E-1,8.729995880E0,8.769093028E0
7.031557084E-1,5.508544922E-1,8.825646973E-1,8.345295868E0,8.409894425E0
7.131687083E-1,2.095642090E-1,1.064885559E0,7.710466003E0,7.786474453E0
7.231807083E-1,-2.020797729E-1,1.094823303E0,6.717580719E0,6.809211776E0
7.331927083E-1,-6.188131714E-1,1.044078827E0,5.767207031E0,5.893530969E0
7.432047083E-1,-8.466394043E-1,8.683442688E-1,5.197342072E0,5.336963993E0
7.532167083E-1,-2.216889954E-1,5.358856201E-2,5.661227417E0,5.665819765E0
7.632297083E-1,1.114133148E0,-8.798703003E-1,6.664141846E0,6.813681160E0
7.732417083E-1,2.997516632E0,-5.607339478E-1,6.599775696E0,7.270252248E0
7.832537083E-1,2.091600494E0,-9.131011963E-1,5.652545471E0,6.095885229E0
7.932657083E-1,1.965263214E0,-1.692979431E0,5.188510437E0,5.800782655E0
8.032777083E-1,3.129242706E0,-2.013163605E0,5.360203400E0,6.525087593E0
8.132907083E-1,4.071383514E0,-1.757195892E0,5.381758575E0,6.973322486E0
8.233027083E-1,4.836891632E0,-1.279090118E0,5.574108582E0,7.490145437E0
8.333147083E-1,5.472469940E0,-1.161883850E0,6.530170441E0,8.598896866E0
8.433267083E-1,5.936804352E0,-1.371298370E0,7.333250427E0,9.534289012E0
8.533387083E-1,6.673871613E0,-1.238674164E0,8.128546600E0,1.059000216E1
8.633517083E-1,7.094646606E0,-1.078507233E0,8.810528412E0,1.136321254E1
8.733637083E-1,7.486232300E0,-1.332079926E0,8.637637939E0,1.150768874E1
8.833757083E-1,8.587492218E0,-1.277892609E0,8.488997040E0,1.214253280E1
8.933877083E-1,8.504414978E0,-1.560804291E0,7.165449371E0,1.122964153E1
9.033997083E-1,8.972641296E0,-1.415755920E0,7.103478241E0,1.153135117E1
9.134117083E-1,9.678722992E0,-2.239343262E-1,7.385192413E0,1.217657145E1
9.234247083E-1,1.056862244E1,8.898994446E-1,7.494315491E0,1.298662642E1
9.334367084E-1,1.176613220E1,1.790726166E0,7.913144531E0,1.429218050E1
9.434487083E-1,1.257894196E1,2.444117432E0,8.196505280E0,1.521138355E1
9.534607083E-1,1.307216629E1,2.603835297E0,7.970175934E0,1.553013825E1
9.634727083E-1,1.365700012E1,2.449655914E0,6.799759827E0,1.545157598E1
9.734857084E-1,1.454674988E1,2.552492065E0,5.403014374E0,1.572627458E1
9.834977083E-1,1.544084061E1,3.062481537E0,3.688479767E0,1.616796941E1
9.935097084E-1,1.647848282E1,3.582500153E0,2.371967468E0,1.702941376E1
1.003521708E0,1.723321335E1,4.051923981E0,1.378483429E0,1.775674370E1
1.013533708E0,1.726419891E1,4.403542786E0,-2.095642090E-1,1.781818370E1
1.023546708E0,1.701661377E1,4.553830261E0,-1.815724182E0,1.770873707E1
1.033558708E0,1.688862991E1,4.717589722E0,-3.267555084E0,1.783699496E1
1.043570708E0,1.679627197E1,4.854405212E0,-4.485422516E0,1.804990353E1
1.053582708E0,1.648297348E1,5.068160706E0,-5.043162689E0,1.796686276E1
1.063595458E0,1.615111359E1,5.090913391E0,-5.179828491E0,1.770893821E1
1.073608458E0,1.608001144E1,4.711302795E0,-5.025349731E0,1.749334965E1
1.083620458E0,1.592987366E1,4.230053558E0,-4.672683105E0,1.713149717E1
1.093632458E0,1.551658310E1,3.960613861E0,-4.376149750E0,1.660124995E1
1.103644458E0,1.525717255E1,3.549718323E0,-4.345014496E0,1.625610548E1
1.113656458E0,1.536045776E1,4.043242035E0,-5.700595551E0,1.687567061E1
1.123669458E0,1.528441589E1,4.941823425E0,-2.201172638E0,1.621357915E1
1.133681458E0,1.351823868E1,3.057990875E0,-3.990850983E0,1.442293232E1
1.143693458E0,1.352617218E1,1.696871338E0,-6.270759888E0,1.500530359E1
1.153705458E0,1.292502228E1,5.215155029E-1,-3.768413544E0,1.347327428E1
1.163717458E0,1.227043350E1,4.849914551E-1,-4.458328857E0,1.306428151E1
1.173730458E0,1.275662247E1,1.763931885E0,-4.313579865E0,1.358123130E1
1.183742458E0,1.363469650E1,3.483406219E0,-4.639751587E0,1.481777184E1
1.193754458E0,1.323847046E1,3.951033783E0,-5.292544098E0,1.479455275E1
1.203766458E0,1.211311066E1,3.141217804E0,-4.683460693E0,1.336149330E1
1.213778458E0,1.093476105E1,2.908900909E0,-3.329226837E0,1.179467910E1
1.223791458E0,1.003543121E1,2.959046631E0,-2.454445953E0,1.074663396E1
1.233803458E0,9.326655121E0,3.450923767E0,-2.090702362E0,1.016200802E1
1.243815458E0,9.247020721E0,3.551215210E0,-1.740580444E0,1.005724326E1
1.253827458E0,9.297016754E0,2.745740204E0,-2.577340393E0,1.003076733E1
1.263839458E0,8.287366333E0,3.924838257E0,1.989662476E0,9.383152607E0
1.273852458E0,6.584357758E0,4.743934937E0,2.965483246E0,8.640183832E0
1.283864458E0,6.228248291E0,4.566553802E0,3.060385895E0,8.307252989E0
1.293876458E0,6.411916351E0,4.358037415E0,1.657503204E0,7.927955492E0
1.303888458E0,6.052064667E0,3.245401154E0,9.960287476E-1,6.939177807E0
1.313900458E0,4.879852295E0,2.761607208E0,4.784051514E-1,5.627459843E0
1.323913458E0,4.434678040E0,2.264640656E0,-5.640270996E-1,5.011296557E0
1.333925458E0,4.727918243E0,1.706301727E0,-1.100511475E0,5.145464217E0
1.343937458E0,3.970193939E0,1.261127472E0,-2.120041351E0,4.674126415E0
1.353949458E0,4.291725311E0,4.328997803E-1,-2.659968567E-1,4.321696738E0
1.363961458E0,3.983965302E0,2.201921082E-1,-7.978408813E-1,4.069031108E0
1.373974458E0,3.667822723E0,5.676196289E-1,-1.943558350E0,4.189574517E0
1.383986458E0,4.056414642E0,3.152444458E-1,-1.406924286E0,4.305033653E0
1.393998458E0,3.890260162E0,5.408253479E-1,-1.314716034E0,4.141870886E0
1.404010458E0,4.172722778E0,4.538562012E-1,-9.074130249E-1,4.294298457E0
1.414022458E0,4.228257294E0,1.286724243E0,-1.932481384E-1,4.423930816E0
1.424035458E0,4.627028046E0,3.124302979E0,-3.457809448E-2,5.583175914E0
1.434047458E0,5.963149567E0,3.344644775E0,1.076261902E0,6.921281753E0
1.444059458E0,6.372548218E0,3.715573425E0,1.711540833E0,7.572597222E0
1.454071458E0,6.845265198E0,5.020709381E0,1.632654877E0,8.644694342E0
1.464083458E0,7.369924164E0,6.049669647E0,8.707392883E-1,9.574574243E0
1.474095458E0,7.736661530E0,5.418582001E0,8.798703003E-1,9.486365704E0
1.484108458E0,7.793692932E0,4.844525757E0,6.683601379E-1,9.200966504E0
1.494120458E0,7.884853363E0,5.099745026E0,7.035369873E-1,9.416648882E0
1.504132458E0,8.828790436E0,4.276007996E0,4.026626587E-1,9.818040647E0
1.514144458E0,1.004516098E1,2.111209717E0,9.821076965E-1,1.031149849E1
1.524156458E0,9.684560852E0,2.265538788E0,4.581971741E-1,9.956572179E0
1.534169458E0,9.379495239E0,4.043092346E0,-5.801934814E-1,1.023025665E1
1.544181458E0,9.663604431E0,6.571035461E0,-1.045875092E0,1.173275809E1
1.554193458E0,1.031040939E1,7.774233398E0,-1.179247742E0,1.296664459E1
1.564205458E0,1.081695602E1,3.770958252E0,4.754113770E-1,1.146528149E1
1.574217458E0,8.846603394E0,2.899320831E0,6.456074524E-1,9.331948450E0
1.584230458E0,8.815767517E0,1.781595154E0,1.253792725E0,9.080959994E0
1.594242458E0,8.567882996E0,2.088906097E0,1.146765289E0,8.893099479E0
1.604254458E0,8.831335144E0,2.891836395E0,-6.400689697E-1,9.314767117E0
1.614266458E0,1.011536499E1,2.602488098E0,-2.557880859E0,1.075343237E1
1.624278458E0,1.048539551E1,1.215023346E0,-1.929786987E0,1.073051157E1
1.634291458E0,9.563762054E0,1.087189178E0,-2.326162720E-1,9.628168843E0
1.644303458E0,9.867929535E0,1.951791229E0,-1.146615601E-1,1.005975495E1
1.654315458E0,1.146406036E1,2.152972870E0,-6.679110718E-1,1.168358153E1
1.664327458E0,1.105271576E1,2.010469208E0,4.326004028E-2,1.123416145E1
1.674339458E0,1.058508820E1,2.179018707E0,1.341660004E0,1.089000763E1
1.684352458E0,1.029903305E1,1.945504303E0,1.978286133E0,1.066624042E1
1.694364458E0,8.485105133E0,2.934198303E0,-7.792794800E-1,9.011870245E0
1.704376458E0,1.026849655E1,2.196382599E0,1.218466187E-1,1.050147440E1
1.714388458E0,1.034393967E1,1.895657959E0,8.068222046E-2,1.051651637E1
1.724400458E0,1.002076172E1,1.124012604E0,-4.243675232E-1,1.009252979E1
1.734413458E0,9.936636658E0,4.315525818E-1,-7.550299072E-1,9.974620587E0
1.744425458E0,1.028122009E1,-2.924917603E-1,-5.659730530E-1,1.030093993E1
1.754437458E0,1.047955765E1,-1.620829468E0,-5.240602112E-1,1.061710204E1
1.764449458E0,1.045006897E1,-1.737586670E0,-1.273252258E0,1.066978539E1
1.774461458E0,1.195743439E1,-1.215771790E0,-8.174501038E-1,1.204684867E1
1.784474458E0,1.280122971E1,-1.488205261E0,-1.000070343E0,1.292618960E1
1.794486458E0,1.376297974E1,-1.132544861E0,-5.827381897E-1,1.382178906E1
1.804498458E0,1.337678284E1,-9.840536499E-1,-3.836521912E-1,1.341841532E1
1.814510458E0,1.182989960E1,-8.132588196E-1,-1.353186035E0,1.193478223E1
1.824522458E0,1.140867554E1,-6.141728210E-1,-1.317111053E0,1.150086376E1
1.834535458E0,1.168589905E1,-1.224453735E-1,-1.231339417E0,1.175123084E1
1.844547458E0,1.176029434E1,6.496490479E-1,-1.081201630E0,1.182774551E1
1.854559458E0,1.193917236E1,7.402107239E-1,-8.298742676E-1,1.199084817E1
1.864571458E0,1.118893250E1,3.659889221E-1,-1.112636261E0,1.125007190E1
1.874583458E0,9.936786346E0,-1.742376709E-1,-2.162103882E0,1.017078044E1
1.884596458E0,8.589887238E0,-8.237370300E-1,-3.417692871E0,9.281450857E0
1.894608458E0,7.134613495E0,-1.411714325E0,-3.766467590E0,8.190355619E0
1.904620458E0,6.175707550E0,-1.879192200E0,-3.481310577E0,7.334183690E0
1.914632458E0,5.097050629E0,-1.939965820E0,-2.153871002E0,5.863663768E0
1.924644458E0,3.637884979E0,-2.072739716E0,-7.279362488E-1,4.249746843E0
1.934656458E0,2.116149445E0,-2.495011597E0,3.852987671E-1,3.294180699E0
1.944669458E0,9.315129089E-1,-3.523073730E0,8.964857483E-1,3.752792494E0
1.954681458E0,2.579436035E0,-3.304528198E0,1.552122345E0,4.470176803E0
1.964693458E0,4.894970856E0,-2.378404083E0,1.987716522E0,5.793838333E0
1.974705458E0,4.721781006E0,-1.567839661E0,1.978136444E0,5.354097577E0
1.984718458E0,4.013903046E0,-1.372196503E0,1.657353516E0,4.554246543E0
1.994730458E0,3.008294220E0,-1.039887543E0,1.320404205E0,3.445963941E0
2.004742458E0,2.049088898E0,-7.286846924E-1,1.153950348E0,2.461980523E0
2.014754458E0,8.277786255E-1,-6.167175293E-1,1.257385254E0,1.626829936E0
2.024766458E0,1.785786438E-1,-4.159849548E-1,1.343755646E0,1.417960878E0
2.034778458E0,6.152206421E-2,-3.463796997E-1,1.194815369E0,1.245531062E0
2.044791458E0,-3.085084534E-1,-4.719685364E-1,1.262624359E0,1.382805857E0
2.054803458E0,-6.833290100E-1,-6.758445740E-1,1.361418915E0,1.666483089E0
2.064814583E0,-8.274792480E-1,-1.542242889E0,1.532513123E0,2.326334350E0
2.074826583E0,-1.251397705E-1,-5.215903473E0,2.018851776E0,5.594378562E0
2.084838583E0,2.415975952E-1,-1.147858017E1,2.982847137E0,1.186227420E1
2.094851583E0,-7.430548096E-1,-1.939905945E1,3.769461365E0,1.977585591E1
2.104863583E0,-2.558778992E0,-2.688319611E1,4.829556885E0,2.743315881E1
2.114875583E0,-5.304818573E0,-3.267076080E1,5.495222626E0,3.355170910E1
2.124887583E0,-9.080417175E0,-3.568878479E1,6.107449493E0,3.732886651E1
2.134899583E0,-1.207029968E1,-3.561813171E1,6.769073639E0,3.821208970E1
2.144912583E0,-1.163260986E1,-3.044399139E1,3.647465057E0,3.279417975E1
2.154924583E0,-7.095694427E0,-1.937436081E1,-8.844358063E0,2.244855019E1
2.164936583E0,-3.713028717E0,-1.231593887E1,-7.468419342E0,1.487434772E1
2.174948583E0,-2.484533386E0,-1.017030075E1,-3.720064087E0,1.111066156E1
2.184960583E0,-1.668879547E0,-8.584498444E0,-2.669398956E0,9.143547630E0
2.194973583E0,-1.114133148E0,-7.382198639E0,-1.825004883E0,7.685622437E0
2.204985583E0,-5.846841431E-1,-6.275250549E0,-1.580862579E0,6.497672776E0
2.214997583E0,4.200265503E-1,-5.226980438E0,-1.747765503E0,5.527425355E0
2.225009583E0,1.134939880E0,-4.766537933E0,-1.604513397E0,5.155815711E0
2.235021583E0,1.090033264E0,-4.917274475E0,-1.142873383E0,5.164680082E0
2.245034583E0,1.479523315E0,-5.249733124E0,-3.950285339E-1,5.468522164E0
2.255046583E0,1.770817566E0,-5.936205597E0,5.987548828E-1,6.223571254E0
2.265058583E0,1.864822083E0,-6.898255005E0,1.780547333E0,7.364362316E0
2.275070583E0,1.805245972E0,-7.970924377E0,2.838547211E0,8.651699181E0
2.285082583E0,1.684596863E0,-9.029373322E0,3.502416687E0,9.830278319E0
2.295095583E0,1.636546783E0,-9.917925568E0,3.652255096E0,1.069497547E1
2.305107583E0,1.608405304E0,-1.052147049E1,3.375929718E0,1.116625319E1
2.315119583E0,1.563798065E0,-1.083521805E1,2.805316315E0,1.130120410E1
2.325131583E0,1.514849854E0,-1.087264023E1,2.061363373E0,1.116952526E1
2.335143583E0,1.451531525E0,-1.067220703E1,1.353784790E0,1.085521441E1
2.345155583E0,1.400038605E0,-1.036564453E1,2.799179077E-1,1.046351034E1
2.355168583E0,1.388961639E0,-1.005623795E1,-1.751807098E0,1.030174569E1
2.365180583E0,1.320853271E0,-9.817035370E0,-3.300636292E0,1.044093084E1
2.375192583E0,1.118623810E0,-9.753866730E0,-3.395688629E0,1.038845208E1
2.385204583E0,7.545808411E-1,-9.859696655E0,-2.482587433E0,1.019540341E1
2.395216583E0,6.526428223E-1,-9.973011017E0,-1.617686005E0,1.012441600E1
2.405229583E0,6.634204102E-1,-1.016955231E1,-6.870712280E-1,1.021430309E1
2.415241583E0,5.972579956E-1,-1.054781570E1,2.143542480E-1,1.056688606E1
2.425253583E0,6.650669861E-1,-1.096754288E1,5.792953491E-1,1.100294933E1
2.435265583E0,9.303153992E-1,-1.128712830E1,5.944139099E-1,1.134099113E1
2.445277583E0,1.351240082E0,-1.157408157E1,2.912942505E-1,1.165633160E1
2.455290583E0,1.906285858E0,-1.182481018E1,-1.164578247E-1,1.197804759E1
2.465302583E0,2.444716187E0,-1.199021622E1,-1.456471252E-1,1.223777493E1
2.475314583E0,2.764451294E0,-1.196746353E1,4.149371338E-1,1.228961135E1
2.485326583E0,2.801574097E0,-1.179202835E1,1.341061249E0,1.219422795E1
2.495338583E0,2.689457245E0,-1.164204025E1,2.134710846E0,1.213784462E1
2.505351583E0,2.589465179E0,-1.157617722E1,2.476450195E0,1.211800373E1
2.515363583E0,2.495011597E0,-1.150148254E1,2.160906372E0,1.196573023E1
2.525375583E0,2.377356262E0,-1.139206009E1,1.302142181E0,1.171009949E1
2.535387583E0,2.208208008E0,-1.132709518E1,4.948709106E-1,1.155093785E1
2.545399583E0,1.877395935E0,-1.131976044E1,2.194436646E-1,1.147648672E1
2.555412583E0,1.379381561E0,-1.131646729E1,1.121168518E-1,1.140077609E1
2.565424583E0,8.117619324E-1,-1.106963058E1,-2.381547546E-1,1.110190958E1
2.575436583E0,3.790118408E-1,-1.055485107E1,-3.412902832E-1,1.056716661E1
2.585448583E0,3.338058472E-1,-1.045216461E1,-3.933819580E-1,1.046488991E1
2.595460583E0,3.032693481E-1,-9.908644867E0,-7.694000244E-2,9.913583366E0
2.605473583E0,2.264790344E-1,-9.523795166E0,1.775308228E-1,9.528141703E0
2.615485583E0,8.637039185E-2,-9.292526093E0,4.788542175E-1,9.305256707E0
2.625497583E0,-1.413061523E-1,-9.115743713E0,6.529421997E-1,9.140190610E0
2.635509583E0,-4.453239441E-1,-8.897497559E0,6.173162842E-1,8.929997515E0
2.645521583E0,-7.827223206E-1,-8.706943817E0,4.816983032E-1,8.755315992E0
2.655534583E0,-1.168320465E0,-8.645571442E0,3.537144470E-1,8.731322476E0
2.665546583E0,-1.581012268E0,-8.895401917E0,3.373983765E-1,9.041106830E0
2.675558583E0,-1.947150879E0,-9.289083252E0,3.134481812E-1,9.496142057E0
2.685570583E0,-2.190245361E0,-9.577533417E0,2.736309814E-1,9.828590693E0
2.695582583E0,-2.368225250E0,-9.846673737E0,1.799258423E-1,1.012905957E1
2.705595583E0,-2.453547821E0,-1.015667908E1,-4.041595459E-3,1.044882975E1
2.715607583E0,-2.449655914E0,-1.046159500E1,-1.905537415E-1,1.074625957E1
2.725619583E0,-2.411185913E0,-1.076725937E1,-3.351530457E-1,1.103902257E1
2.735631583E0,-2.283950500E0,-1.112905701E1,-4.914280701E-1,1.137162439E1
2.745643583E0,-2.072739716E0,-1.155402328E1,-7.306306458E-1,1.176118723E1
2.755656583E0,-1.767524414E0,-1.200877762E1,-1.033750305E0,1.218209843E1
2.765668583E0,-1.261875916E0,-1.211655350E1,-1.492546234E0,1.227317782E1
2.775680583E0,-5.427713013E-1,-1.190668991E1,-1.970502319E0,1.208084205E1
2.785692583E0,1.505868530E-1,-1.160012741E1,-2.402354279E0,1.184723337E1
2.795704583E0,8.038284302E-1,-1.122590561E1,-2.693349152E0,1.157243391E1
2.805717583E0,1.289418640E0,-1.080258591E1,-2.542911987E0,1.117250483E1
2.815729583E0,1.674867096E0,-1.035651352E1,-2.210902405E0,1.072150370E1
2.825741583E0,1.975442047E0,-9.859546967E0,-1.813478851E0,1.021771712E1
2.835753583E0,2.181264038E0,-9.354646912E0,-1.445394287E0,9.713727209E0
2.845765583E0,2.288441162E0,-8.797206116E0,-1.138981476E0,9.161063104E0
2.855778583E0,2.290985870E0,-8.067323914E0,-9.690847778E-1,8.442123944E0
2.865790583E0,2.289938049E0,-7.423363037E0,-9.150471497E-1,7.822240493E0
2.875802583E0,2.289788361E0,-6.943161621E0,-9.090596008E-1,7.367293492E0
2.885814583E0,2.278861084E0,-6.622827759E0,-1.012943573E0,7.076800834E0
2.895826583E0,2.168091431E0,-6.396348724E0,-1.140328674E0,6.849397560E0
2.905839583E0,2.048639832E0,-6.219416656E0,-1.244512024E0,6.665349119E0
2.915851583E0,1.977537689E0,-6.044729919E0,-1.273102570E0,6.486154891E0
2.925863583E0,1.853595428E0,-5.844296722E0,-1.275347900E0,6.262438220E0
2.935875583E0,1.659898224E0,-5.635331268E0,-1.224304047E0,6.000928346E0
2.945887583E0,1.373543701E0,-5.462291107E0,-1.202299805E0,5.759233565E0
2.955900583E0,1.032103729E0,-5.405259705E0,-1.235381012E0,5.639879150E0
2.965912583E0,7.107220459E-1,-5.438789978E0,-1.357826385E0,5.650597733E0
2.975924583E0,4.516108704E-1,-5.576952667E0,-1.516795807E0,5.797156454E0
2.985936583E0,3.017724609E-1,-5.856421509E0,-1.757345581E0,6.121846372E0
2.995948583E0,2.854563904E-1,-6.321204987E0,-2.123783569E0,6.674546762E0
3.005961583E0,3.860472107E-1,-6.966363373E0,-2.674488373E0,7.472090681E0
3.015973583E0,5.522016907E-1,-7.777676239E0,-3.367247772E0,8.493263916E0
3.025985583E0,6.920109558E-1,-8.722361755E0,-4.211043091E0,9.710373714E0
3.035997583E0,7.617658997E-1,-9.665700073E0,-5.005740509E0,1.091162148E1
3.046009583E0,7.358697510E-1,-1.045351181E1,-5.652844849E0,1.190680765E1
3.056021583E0,6.834786987E-1,-1.097622482E1,-6.077960815E0,1.256528003E1
3.066034958E0,7.062313843E-1,-1.118878281E1,-6.178102570E0,1.280064744E1
3.076046958E0,9.307644653E-1,-1.107097778E1,-5.934109955E0,1.259549652E1
3.086058958E0,1.394949188E0,-1.059481796E1,-5.465434570E0,1.200279242E1
3.096070958E0,1.994302826E0,-1.002585114E1,-4.955445099E0,1.136007794E1
3.106082958E0,2.621348877E0,-9.558822327E0,-4.518204346E0,1.089296675E1
3.116095958E0,3.216211853E0,-9.260193329E0,-4.233197021E0,1.067778798E1
3.126107958E0,3.720064087E0,-9.095086670E0,-4.054618378E0,1.063011799E1
3.136119958E0,4.093986511E0,-8.992250519E0,-3.949237518E0,1.064038401E1
3.146131958E0,4.347259827E0,-8.954978027E0,-3.905079346E0,1.069298575E1
3.156143958E0,4.497547302E0,-8.977730713E0,-3.903283081E0,1.077326317E1
3.166156958E0,4.618944855E0,-9.024134216E0,-3.785927124E0,1.082140906E1
3.176168958E0,4.687951355E0,-9.135502625E0,-3.521427155E0,1.085517136E1
3.186180958E0,4.794380035E0,-9.858349457E0,-3.191662903E0,1.141752364E1
3.196192958E0,4.774471436E0,-1.139146133E1,-2.118544464E0,1.253192720E1
3.206204958E0,4.543052673E0,-1.310644501E1,-1.722917175E-1,1.387255970E1
3.216217958E0,4.336482239E0,-1.452504501E1,1.723815308E0,1.525626265E1
3.226229958E0,4.309538269E0,-1.545790512E1,3.135230255E0,1.635079874E1
3.236241958E0,4.402794342E0,-1.599423981E1,3.561843109E0,1.696723405E1
3.246253958E0,4.490511932E0,-1.565549423E1,2.637215881E0,1.649891223E1
3.256266958E0,4.028273163E0,-1.364173187E1,7.102729797E-1,1.424178082E1
3.266278958E0,2.717898102E0,-1.082967957E1,-5.595364380E-1,1.117953535E1
3.276290958E0,1.028511200E0,-8.914113007E0,-1.022373962E0,9.031306356E0
3.286302958E0,-3.082090759E-1,-7.661517792E0,-1.697619781E0,7.853391664E0
3.296314958E0,-1.321302338E0,-6.726262665E0,-2.634671173E0,7.343700804E0
3.306326958E0,-2.134860535E0,-6.043831787E0,-3.460803223E0,7.284414261E0
3.316339958E0,-2.606080627E0,-5.572012939E0,-3.543132019E0,7.098786441E0
3.326351958E0,-2.782563629E0,-5.331313477E0,-2.986289978E0,6.714424143E0
3.336363958E0,-2.820285187E0,-5.353018341E0,-2.136357422E0,6.416606340E0
3.346375958E0,-2.855462036E0,-5.722599792E0,-1.152303772E0,6.498431796E0
3.356387958E0,-2.951711884E0,-6.523284760E0,-1.213975525E-1,7.161046325E0
3.366400958E0,-3.122506714E0,-7.593559113E0,7.951464844E-1,8.248905752E0
3.376412958E0,-3.339405670E0,-8.907077637E0,1.629062347E0,9.650984737E0
3.386424958E0,-3.607348480E0,-1.021475830E1,2.237247620E0,1.106162407E1
3.396436958E0,-3.988306274E0,-1.143921204E1,2.636617126E0,1.239814135E1
3.406448958E0,-4.117188263E0,-1.234946915E1,2.704575806E0,1.329568944E1
3.416461958E0,-3.914509735E0,-1.278236893E1,2.654280396E0,1.362929001E1
3.426473958E0,-3.322041779E0,-1.257909164E1,2.597248993E0,1.326707242E1
3.436485958E0,-2.310445404E0,-1.154863449E1,2.335144043E0,1.200674870E1
3.446497958E0,-1.253044281E0,-1.029948212E1,1.879790955E0,1.054433810E1
3.456509958E0,-1.212478638E-1,-9.223968658E0,6.533912659E-1,9.247876459E0
3.466522958E0,1.410965881E0,-8.238268433E0,-1.709445190E0,8.531242251E0
3.476534958E0,2.501597900E0,-7.759414215E0,-2.847229156E0,8.635578434E0
3.486546958E0,2.998115387E0,-7.773484955E0,-2.785856781E0,8.785030576E0
3.496558958E0,2.983445892E0,-8.074359283E0,-2.169887695E0,8.877197747E0
3.506570958E0,2.371668091E0,-8.381221161E0,-1.242865448E0,8.798544891E0
3.516583958E0,1.095122681E0,-8.692723389E0,-2.192939758E-1,8.764178424E0
3.526595958E0,-3.757186890E-2,-9.058862000E0,4.586462402E-1,9.070542913E0
3.536607958E0,-5.671705627E-1,-9.401349792E0,9.089099121E-1,9.462197292E0
3.546619958E0,-6.454577637E-1,-9.718839569E0,1.244062958E0,9.819376301E0
3.556631958E0,-3.709286499E-1,-9.930798798E0,1.433119812E0,1.004052714E1
3.566644958E0,5.029541016E-2,-9.946516113E0,1.466201019E0,1.005412641E1
3.576656958E0,2.953358459E-1,-9.841135254E0,1.350042572E0,9.937694969E0
3.586668958E0,2.857557678E-1,-9.673633575E0,1.111738129E0,9.741499093E0
3.596680958E0,1.188528442E-1,-9.526938629E0,6.547384644E-1,9.550150161E0
3.606692958E0,-1.886077881E-2,-9.418414307E0,1.272354126E-1,9.419292576E0
3.616705958E0,-2.844085693E-3,-9.310937805E0,-2.333647156E-1,9.313862249E0
3.626717958E0,2.026785278E-1,-9.215436401E0,-3.920347595E-1,9.225997936E0
3.636729958E0,5.580395508E-1,-9.097781067E0,-4.022135925E-1,9.123749463E0
3.646741958E0,9.779164124E-1,-8.993448029E0,-3.106040955E-1,9.051790036E0
3.656753958E0,1.332379303E0,-8.946894836E0,-1.901046753E-1,9.047557770E0
3.666766958E0,1.541494446E0,-8.971144409E0,-1.601669312E-1,9.104026064E0
3.676778958E0,1.595681763E0,-9.012608185E0,-2.450404358E-1,9.156055450E0
3.686790958E0,1.530267792E0,-9.083261261E0,-3.873944092E-1,9.219405028E0
3.696802958E0,1.402882690E0,-9.201515350E0,-5.093907166E-1,9.321772551E0
3.706814958E0,1.227746887E0,-9.373507690E0,-5.957611084E-1,9.472324960E0
3.716827958E0,1.071022797E0,-9.534572754E0,-6.406677246E-1,9.615904667E0
3.726839958E0,1.006656647E0,-9.679471436E0,-6.655160522E-1,9.754406004E0
3.736851958E0,1.019080811E0,-9.776918793E0,-7.316784668E-1,9.857079697E0
3.746863958E0,1.059347076E0,-9.862540741E0,-8.098159790E-1,9.952272505E0
3.756875958E0,1.112935638E0,-9.913584595E0,-8.011340332E-1,1.000797687E1
3.766888958E0,1.205892334E0,-9.939031677E0,-6.330335999E-1,1.003191201E1
3.776900958E0,1.412163391E0,-9.990973663E0,-2.122586060E-1,1.009251276E1
3.786912958E0,1.734892273E0,-1.014799713E1,4.330494690E-1,1.030433059E1
3.796924958E0,2.109862518E0,-1.048434769E1,1.184187469E0,1.075989620E1
3.806936958E0,2.404749298E0,-1.092203751E1,1.802401886E0,1.132794664E1
3.816949958E0,2.566113739E0,-1.148816025E1,2.403551788E0,1.201415111E1
3.826961958E0,2.710114288E0,-1.216445389E1,2.739602966E0,1.276025400E1
3.836973958E0,2.867137756E0,-1.292083099E1,2.587369537E0,1.348565288E1
3.846985958E0,3.039728851E0,-1.369457199E1,2.234852600E0,1.420478158E1
3.856997958E0,3.047961731E0,-1.448043777E1,1.689087524E0,1.489382978E1
3.867010958E0,2.693498840E0,-1.521750504E1,1.132245483E0,1.549546306E1
3.877022958E0,1.872306519E0,-1.550820053E1,5.890251160E-1,1.563191498E1
3.887034958E0,1.178050232E0,-1.506706787E1,2.814147949E-2,1.511307806E1
3.897046958E0,8.589138794E-1,-1.439810898E1,-3.790118408E-1,1.442868411E1
3.907058958E0,5.047503662E-1,-1.370100861E1,-5.700146484E-1,1.372214730E1
3.917071958E0,-7.499404907E-2,-1.277458511E1,-6.512956238E-1,1.279139691E1
3.927083958E0,-7.562274170E-1,-1.178948364E1,-5.703140259E-1,1.182747067E1
3.937095958E0,-1.401685181E0,-1.099209183E1,-1.749861145E-1,1.108248276E1
3.947107958E0,-1.995949402E0,-1.019065842E1,4.034111023E-1,1.039211593E1
3.957119958E0,-2.609673157E0,-9.417216797E0,6.256988525E-1,9.792132824E0
3.967132958E0,-3.391796722E0,-8.754245453E0,2.158511353E-1,9.390830111E0
3.977144958E0,-4.450844421E0,-8.342302094E0,-4.538562012E-1,9.466256162E0
3.987156958E0,-5.515280914E0,-8.310568085E0,-8.198451233E-1,1.000779753E1
3.997168958E0,-6.177503815E0,-8.502469025E0,-9.428892517E-1,1.055189903E1
4.007180958E0,-6.403683472E0,-8.856183472E0,-1.017733612E0,1.097610721E1
4.017193958E0,-6.134094086E0,-9.181906128E0,-1.130449219E0,1.110010927E1
4.027205958E0,-5.407505035E0,-9.375004578E0,-1.286275177E0,1.089891395E1
4.037217958E0,-4.474195862E0,-9.513466644E0,-1.421893158E0,1.060878204E1
4.047229958E0,-3.642525330E0,-9.604776764E0,-1.305884399E0,1.035495348E1
4.057241958E0,-2.916834412E0,-9.680818634E0,-1.120270386E0,1.017256989E1
4.067258500E0,-2.445165253E0,-9.923464050E0,-9.488768005E-1,1.026422618E1
4.077270500E0,-2.200723572E0,-1.033570679E1,-6.688092041E-1,1.058854687E1
4.087282500E0,-1.832339630E0,-1.068612808E1,-3.174897766E-1,1.084673230E1
4.097294500E0,-1.335971832E0,-1.082129700E1,-1.094224548E-1,1.090400214E1
4.107306500E0,-8.143066406E-1,-1.083970871E1,-1.396595764E-1,1.087114920E1
4.117319500E0,-1.055305481E-1,-1.083207458E1,-3.878434753E-1,1.083952947E1
4.127331500E0,6.571334839E-1,-1.077264816E1,-7.740403748E-1,1.082039331E1
4.137343500E0,1.301393738E0,-1.054272629E1,-9.225315857E-1,1.066272797E1
4.147355500E0,1.814227295E0,-1.005459137E1,-8.578660583E-1,1.025290995E1
4.157367500E0,2.193239136E0,-9.355545044E0,-8.446934509E-1,9.646244243E0
4.167380500E0,2.468217316E0,-8.502918091E0,-8.867559814E-1,8.898204816E0
4.177392500E0,2.607278137E0,-7.638465729E0,-1.023272095E0,8.135793984E0
4.187404500E0,2.591560822E0,-6.880591736E0,-1.224154358E0,7.453675873E0
4.197416500E0,2.436932373E0,-6.286177826E0,-1.432371368E0,6.892485676E0
4.207428500E0,2.193987579E0,-5.850733337E0,-1.606159973E0,6.451698377E0
4.217441500E0,1.898801422E0,-5.551655273E0,-1.826052704E0,6.144981008E0
4.227453500E0,1.481319580E0,-5.325176239E0,-1.996248779E0,5.876803456E0
4.237465500E0,9.672885132E-1,-5.139113159E0,-2.081271973E0,5.628305620E0
4.247477500E0,4.264631653E-1,-4.992567902E0,-2.078427887E0,5.424708984E0
4.257489500E0,-4.460723877E-2,-4.870721283E0,-2.043400726E0,5.282177785E0
4.267502500E0,-4.567002869E-1,-4.764891357E0,-2.047592010E0,5.206284456E0
4.277514500E0,-7.694000244E-1,-4.715194702E0,-2.119741974E0,5.226695276E0
4.287526500E0,-9.851014709E-1,-4.710554352E0,-2.255809021E0,5.314924416E0
4.297538500E0,-1.096170502E0,-4.828209686E0,-2.427951050E0,5.514358063E0
4.307550500E0,-9.807604980E-1,-5.137915649E0,-2.745291138E0,5.907342195E0
4.317563500E0,-6.065386963E-1,-5.761668549E0,-3.276087341E0,6.655633848E0
4.327575500E0,-1.064286804E-1,-6.826853485E0,-4.108057251E0,7.968273963E0
4.337587500E0,3.870950317E-1,-8.447084198E0,-5.151836700E0,9.901742039E0
4.347599500E0,8.348139954E-1,-1.038779846E1,-6.248156891E0,1.215083272E1
4.357611500E0,1.280437317E0,-1.234348160E1,-7.094945984E0,1.429473036E1
4.367624500E0,1.714235229E0,-1.382465149E1,-7.388186188E0,1.576847762E1
4.377636500E0,2.127974854E0,-1.445993042E1,-6.995552673E0,1.620356819E1
4.387648500E0,2.597099304E0,-1.413435745E1,-6.160738678E0,1.563584620E1
4.397660500E0,3.166066132E0,-1.274330017E1,-5.260361023E0,1.414521375E1
4.407672500E0,3.620371399E0,-1.104807541E1,-4.464915161E0,1.245401649E1
4.417685500E0,3.904779968E0,-9.930798798E0,-3.874842224E0,1.135264170E1
4.427697500E0,4.167932739E0,-9.912237396E0,-3.785178680E0,1.139963557E1
4.437709500E0,4.352947998E0,-1.130763565E1,-3.880680084E0,1.272283216E1
4.447721500E0,4.072730713E0,-1.332154770E1,-3.445085907E0,1.434989148E1
4.457733500E0,3.324885864E0,-1.513502655E1,-2.419867859E0,1.568373856E1
4.467746500E0,2.389930115E0,-1.645363449E1,-6.947053528E-1,1.664080736E1
4.477758500E0,1.458866272E0,-1.702933731E1,1.165326691E0,1.713139242E1
4.487770500E0,7.869136047E-1,-1.656949356E1,2.342778168E0,1.675278960E1
4.497782500E0,2.905458069E-1,-1.437999664E1,2.549198914E0,1.460709196E1
4.507795500E0,-2.059716797E-1,-1.137394775E1,2.049837341E0,1.155902007E1
4.517807500E0,-5.905220032E-1,-9.136400757E0,1.173559570E0,9.230372533E0
4.527819500E0,-8.942404175E-1,-7.342381439E0,5.179229736E-2,7.396817800E0
4.537831500E0,-1.179696808E0,-5.520669708E0,-1.614392853E0,5.871604795E0
4.547843500E0,-1.558409271E0,-3.743565216E0,-3.538491669E0,5.381806692E0
4.557855500E0,-2.154769135E0,-2.515219574E0,-4.616849213E0,5.681958833E0
4.567868500E0,-2.765648804E0,-2.183060303E0,-4.235891418E0,5.509749695E0
4.577880500E0,-3.116818542E0,-2.851719818E0,-2.845133514E0,5.093294461E0
4.587892500E0,-3.092269592E0,-4.157304840E0,-1.274898834E0,5.335792519E0
4.597904500E0,-2.764301605E0,-5.766458588E0,1.550775146E-1,6.396675468E0
4.607916500E0,-2.337539063E0,-7.336094513E0,1.308878174E0,7.809963742E0
4.617929500E0,-2.059866486E0,-8.877738647E0,2.236499176E0,9.383987532E0
4.627941500E0,-1.989961853E0,-1.056248520E1,2.973416748E0,1.115200650E1
4.637953500E0,-2.010020142E0,-1.235395981E1,3.335962830E0,1.295334520E1
4.647965500E0,-2.048789520E0,-1.391446472E1,3.315156097E0,1.444991789E1
4.657978500E0,-2.065404968E0,-1.492636047E1,3.082539825E0,1.538064324E1
4.667990500E0,-1.857038269E0,-1.514191223E1,2.528691559E0,1.546351765E1
4.678002500E0,-1.259780273E0,-1.424961777E1,1.232836304E0,1.435822197E1
4.688014500E0,-3.839515686E-1,-1.250484604E1,-3.826043701E-1,1.251658817E1
4.698026500E0,3.676354980E-1,-1.077459412E1,-1.256337433E0,1.085382043E1
4.708039500E0,9.409432983E-1,-9.504185944E0,-1.220861206E0,9.628365740E0
4.718051500E0,1.386117554E0,-8.722511444E0,-7.861651611E-1,8.866881268E0
4.728063500E0,1.752256165E0,-8.230484619E0,-2.796185303E-1,8.419588188E0
4.738075500E0,2.065105591E0,-7.930209045E0,2.724334717E-2,8.194731161E0
4.748087500E0,2.329755249E0,-7.835905151E0,1.305285645E-1,8.175952958E0
4.758100500E0,2.583178253E0,-7.979306946E0,6.795867920E-2,8.387297992E0
4.768112500E0,2.698288879E0,-8.367150421E0,-5.718109131E-2,8.791657337E0
4.778124500E0,2.308050385E0,-9.056916046E0,-5.493576050E-2,9.346541755E0
4.788136500E0,1.019978943E0,-9.815089417E0,3.703298950E-1,9.874891469E0
4.798148500E0,3.951782227E-2,-1.010653336E1,8.448431396E-1,1.014186068E1
4.808161500E0,-2.990780640E-1,-1.012868729E1,1.059197388E0,1.018830962E1
4.818173500E0,-4.228706360E-1,-1.011731094E1,8.268804932E-1,1.015984900E1
4.828185500E0,-4.703219604E-1,-9.903705139E0,1.121168518E-1,9.915500412E0
4.838197500E0,-5.438191223E-1,-9.546098785E0,-7.809260559E-1,9.593413718E0
4.848209500E0,-6.366261292E-1,-9.254954224E0,-1.406325531E0,9.382815250E0
4.858222500E0,-7.005432129E-1,-9.094936981E0,-1.461860046E0,9.238272256E0
4.868234500E0,-7.333250427E-1,-9.007668457E0,-9.803114319E-1,9.090482229E0
4.878246500E0,-7.174580383E-1,-8.949289856E0,-3.314108276E-1,8.984117547E0
4.888258500E0,-5.191204834E-1,-8.856333160E0,1.775308228E-1,8.873310561E0
4.898270500E0,1.522334290E-1,-8.798403625E0,4.760101318E-1,8.812585717E0
4.908283500E0,9.840536499E-1,-9.031019897E0,4.948709106E-1,9.097943679E0
4.918295500E0,1.553619232E0,-9.429790649E0,1.939965820E-1,9.558886917E0
4.928307500E0,1.813778229E0,-9.674681396E0,-3.237767029E-1,9.848557404E0
4.938319500E0,1.967957611E0,-9.740843811E0,-8.276289368E-1,9.972054200E0
4.948331500E0,2.062860260E0,-9.704170074E0,-1.058149567E0,9.977273665E0
4.958344500E0,2.024539948E0,-9.578880615E0,-9.270222473E-1,9.834281168E0
4.968356500E0,1.770069122E0,-9.399553528E0,-6.765930176E-1,9.588666713E0
4.978368500E0,1.387464752E0,-9.294621735E0,-4.552033997E-1,9.408626986E0
4.988380500E0,1.012344818E0,-9.265582123E0,-3.399430847E-1,9.326918859E0
4.998392500E0,7.041357422E-1,-9.263336792E0,-4.571493530E-1,9.301301049E0
5.008405500E0,4.186793518E-1,-9.317823486E0,-7.650590515E-1,9.358549154E0
5.018417500E0,1.234931946E-1,-9.527687073E0,-9.226812744E-1,9.573056579E0
5.028429500E0,-1.553768921E-1,-9.933642883E0,-6.330335999E-1,9.955005497E0
5.038441500E0,-2.582130432E-1,-1.051727921E1,1.856140137E-2,1.052046484E1
5.048453500E0,-1.263372803E-1,-1.127470413E1,5.278024292E-1,1.128775840E1
5.058466500E0,2.237846375E-1,-1.215307755E1,8.189469910E-1,1.218269459E1
5.068475583E0,6.947053528E-1,-1.301708084E1,1.133892059E0,1.308482787E1
5.078487583E0,1.177900543E0,-1.361239288E1,1.573378143E0,1.375355258E1
5.088499583E0,1.561103668E0,-1.363469650E1,1.999841309E0,1.386871871E1
5.098511583E0,1.776206360E0,-1.293250671E1,2.003733215E0,1.320680074E1
5.108524583E0,1.946252747E0,-1.196446976E1,1.562450867E0,1.222201657E1
5.118536583E0,2.158810730E0,-1.127530289E1,8.952882385E-1,1.151496678E1
5.128548583E0,2.328408051E0,-1.091545120E1,2.243833923E-1,1.116328388E1
5.138560583E0,2.458936615E0,-1.066337540E1,-3.281176758E-1,1.094813250E1
5.148573583E0,2.430495758E0,-1.047027695E1,-7.789801025E-1,1.077686499E1
5.158585583E0,2.072739716E0,-1.039348663E1,-1.327589264E0,1.068097877E1
5.168597583E0,1.216669922E0,-1.041309586E1,-1.847458191E0,1.064546630E1
5.178609583E0,1.137634277E-2,-1.052536240E1,-1.889371033E0,1.069360117E1
5.188621583E0,-9.819580078E-1,-1.055065979E1,-1.448986816E0,1.069486916E1
5.198634583E0,-1.583107910E0,-1.048599426E1,-6.274951172E-1,1.062337312E1
5.208646583E0,-2.151475983E0,-1.064720901E1,5.164260864E-1,1.087467722E1
5.218658583E0,-2.770887909E0,-1.085273163E1,1.397643585E0,1.128773720E1
5.228670583E0,-3.306474152E0,-1.093910202E1,1.733694763E0,1.155865139E1
5.238682583E0,-3.684438171E0,-1.087787933E1,1.793869629E0,1.162416929E1
5.248695583E0,-3.835474091E0,-1.067265610E1,1.712888031E0,1.146954380E1
5.258707583E0,-3.704795837E0,-1.033151550E1,1.466949463E0,1.107328612E1
5.268719583E0,-3.315006409E0,-1.005788452E1,1.084794159E0,1.064551957E1
5.278731583E0,-2.827619934E0,-1.012434631E1,5.292993164E-1,1.052511190E1
5.288743583E0,-2.355052643E0,-1.057880127E1,-2.646496582E-1,1.084100312E1
5.298756583E0,-1.782642975E0,-1.122410934E1,-1.378184052E0,1.144804952E1
5.308768583E0,-1.044827271E0,-1.163799866E1,-2.268382874E0,1.190295080E1
5.318780583E0,-2.778222656E-1,-1.161509628E1,-2.577190704E0,1.190082177E1
5.328792583E0,4.622387695E-1,-1.111289062E1,-2.436333618E0,1.138620763E1
5.338804583E0,1.053060150E0,-1.039094193E1,-2.194436646E0,1.067221448E1
5.348817583E0,1.506766663E0,-9.683962097E0,-1.820214844E0,9.968081548E0
5.358829583E0,1.792971497E0,-9.073681183E0,-1.359922028E0,9.348573416E0
5.368841583E0,1.985620880E0,-8.507857819E0,-9.574090576E-1,8.788797816E0
5.378853583E0,2.120490417E0,-8.008047180E0,-6.168672180E-1,8.306974444E0
5.388865583E0,2.187101898E0,-7.592511292E0,-3.561094666E-1,7.909263959E0
5.398878583E0,2.192490692E0,-7.295678558E0,-2.113604736E-1,7.620932641E0
5.408890583E0,2.157164154E0,-7.087311859E0,-2.770738220E-1,7.413509053E0
5.418902583E0,2.107617188E0,-6.966662750E0,-4.906796265E-1,7.295012446E0
5.428914583E0,1.997296600E0,-6.905140686E0,-8.080197144E-1,7.233467872E0
5.438926583E0,1.743574219E0,-6.948700104E0,-1.104403381E0,7.248737202E0
5.448939583E0,1.361418915E0,-7.142846375E0,-1.286574554E0,7.384374711E0
5.458951583E0,1.002016296E0,-7.461084595E0,-1.328188019E0,7.644337996E0
5.468963583E0,7.836204529E-1,-7.671247559E0,-1.093326416E0,7.788290106E0
5.478975583E0,7.306306458E-1,-7.665559387E0,-4.077520752E-1,7.711088355E0
5.488987583E0,6.831793213E-1,-7.477999420E0,1.033899994E0,7.579984071E0
5.499000583E0,1.091230774E0,-7.764803009E0,1.296004944E0,7.947488860E0
5.509012583E0,1.319356384E0,-8.573271790E0,9.984237671E-1,8.731468403E0
5.519024583E0,1.520088959E0,-9.214987335E0,3.773652649E-1,9.347142161E0
5.529036583E0,1.777403870E0,-9.867181091E0,-5.213658142E-1,1.003953433E1
5.539049583E0,2.090852051E0,-1.048165329E1,-1.306034088E0,1.076765727E1
5.549061583E0,2.195484467E0,-1.108819199E1,-1.496438141E0,1.140208230E1
5.559073583E0,2.021097107E0,-1.169488037E1,-7.810757446E-1,1.189391188E1
5.569085583E0,1.649569702E0,-1.213721054E1,8.711883545E-2,1.224910403E1
5.579097583E0,9.545649719E-1,-1.253672974E1,4.535568237E-1,1.258119631E1
5.589110583E0,-3.474275208E-1,-1.273895920E1,3.668870544E-1,1.274897617E1
5.599122583E0,-1.750459900E0,-1.230620911E1,1.745370483E-1,1.243130547E1
5.609134583E0,-3.211421814E0,-1.160282181E1,-1.031504974E0,1.208315797E1
5.619146583E0,-4.615052948E0,-1.097412918E1,-2.778522034E0,1.222499119E1
5.629158583E0,-5.730682983E0,-1.025053391E1,-3.827241211E0,1.235159699E1
5.639171583E0,-6.236630859E0,-9.439370728E0,-3.565136261E0,1.186201841E1
5.649183583E0,-6.209237823E0,-8.710985413E0,-2.895578613E0,1.108243099E1
5.659195583E0,-5.717210999E0,-8.128546600E0,-1.788480835E0,1.009744696E1
5.669207583E0,-5.114564209E0,-7.517517242E0,-2.041754150E-1,9.094697364E0
5.679219583E0,-4.713248749E0,-7.369325409E0,8.277786255E-2,8.748058237E0
5.689232583E0,-4.023183746E0,-7.641010437E0,1.135089569E0,8.709734570E0
5.699244583E0,-3.329825592E0,-8.084837494E0,2.788251801E0,9.177509677E0
5.709256583E0,-2.525099030E0,-8.214168549E0,3.569626923E0,9.305424570E0
5.719268583E0,-1.871558075E0,-8.291258240E0,3.761677551E0,9.295047651E0
5.729280583E0,-1.186732178E0,-8.585246887E0,3.803141327E0,9.464601488E0
5.739293583E0,-5.541476440E-1,-9.087751923E0,3.898343353E0,9.904110032E0
5.749305583E0,3.861968994E-2,-9.699380035E0,4.011957092E0,1.049644055E1
5.759317583E0,6.869215393E-1,-1.040785675E1,3.570974121E0,1.102484465E1
5.769329583E0,1.839824066E0,-1.114582214E1,1.121767273E0,1.135220973E1
5.779341583E0,3.355272675E0,-1.181313446E1,-2.590812378E0,1.255070951E1
5.789354583E0,4.244872742E0,-1.223525665E1,-4.368066559E0,1.366749631E1
5.799366583E0,4.296964417E0,-1.234003876E1,-3.786825256E0,1.360442962E1
5.809378583E0,3.984713745E0,-1.209993805E1,-2.461032257E0,1.297471095E1
5.819390583E0,3.483406219E0,-1.141765686E1,-8.048762512E-1,1.196431498E1
5.829403583E0,2.713706818E0,-1.042806473E1,9.654922485E-1,1.081854491E1
5.839415583E0,1.891766052E0,-9.472601624E0,2.164049835E0,9.899094504E0
5.849427583E0,1.209035797E0,-8.760083313E0,2.675536194E0,9.239010831E0
5.859439583E0,6.999444580E-1,-8.397387543E0,2.678080902E0,8.841841273E0
5.869451583E0,2.237846375E-1,-8.391998749E0,2.299518127E0,8.704223468E0
5.879464583E0,-2.532733154E-1,-8.580606537E0,1.594783630E0,8.731225042E0
5.889476583E0,-6.846762085E-1,-8.884474640E0,7.331753540E-1,8.940929327E0
5.899488583E0,-9.806108093E-1,-9.196425934E0,1.502874756E-1,9.249780205E0
5.909500583E0,-1.172362061E0,-9.499096527E0,-3.742218018E-2,9.571241719E0
5.919512583E0,-1.338067474E0,-9.797126770E0,-2.634521484E-2,9.888114663E0
5.929525583E0,-1.474583588E0,-1.004605911E1,-7.933502197E-3,1.015370688E1
5.939537583E0,-1.633553009E0,-1.016880386E1,-7.065307617E-2,1.029942034E1
5.949549583E0,-1.796863403E0,-1.023227188E1,-2.450404358E-1,1.039173473E1
5.959561583E0,-1.912722473E0,-1.032193542E1,-4.802014160E-1,1.050863700E1
5.969573583E0,-1.841320953E0,-1.039947418E1,-6.414161682E-1,1.058068716E1
5.979586583E0,-1.495989075E0,-1.039513321E1,-6.668632507E-1,1.052337799E1
5.989598583E0,-8.800199890E-1,-1.035097504E1,-4.499642944E-1,1.039805690E1
5.999610583E0,-3.532653809E-2,-1.026415558E1,-3.472778320E-2,1.026427512E1
6.009622583E0,7.294331360E-1,-1.016087036E1,4.074526978E-1,1.019516439E1
6.019635583E0,1.212628326E0,-1.010563522E1,8.110134888E-1,1.021039047E1
6.029647583E0,1.411414948E0,-1.007345215E1,1.045875092E0,1.022547725E1
6.039659583E0,1.431473236E0,-9.997260590E0,1.061143341E0,1.015481955E1
6.049671583E0,1.399888916E0,-9.848320312E0,8.387059021E-1,9.982611359E0
6.059683583E0,1.398541718E0,-9.705068207E0,4.658312988E-1,9.816377470E0
6.069699500E0,1.378633118E0,-9.651329956E0,1.062789917E-1,9.749876636E0
6.079711500E0,1.270707550E0,-9.655371552E0,-1.881587219E-1,9.740446662E0
6.089723500E0,1.117575989E0,-9.718540192E0,-2.850073242E-1,9.786737389E0
6.099735500E0,9.108558655E-1,-9.821526031E0,-2.242337036E-1,9.866220794E0
6.109747500E0,6.604266357E-1,-9.884095917E0,-9.220825195E-2,9.906564379E0
6.119760500E0,3.790118408E-1,-9.884245605E0,-1.646575928E-2,9.891523254E0
6.129772500E0,9.145980835E-2,-9.790390778E0,2.409988403E-2,9.790847628E0
6.139784500E0,-1.516346741E-1,-9.639504547E0,-6.586303711E-3,9.640699371E0
6.149796500E0,-3.463796997E-1,-9.538913727E0,-1.016386414E-1,9.545741689E0
6.159808500E0,-4.860392761E-1,-9.569899292E0,-2.020797729E-1,9.584364500E0
6.169821500E0,-5.604345703E-1,-9.754166107E0,-3.025209045E-1,9.774935409E0
6.179833500E0,-5.620811462E-1,-1.005803421E1,-3.683839417E-1,1.008046101E1
6.189845500E0,-5.313949585E-1,-1.036908737E1,-3.929328918E-1,1.039012752E1
6.199857500E0,-4.745132446E-1,-1.054227722E1,-3.796105957E-1,1.055977633E1
6.209870500E0,-4.180805969E-1,-1.051398605E1,-1.990859985E-1,1.052417832E1
6.219882500E0,-3.086581421E-1,-1.032328262E1,5.583389282E-2,1.032804683E1
6.229894500E0,-1.128652954E-1,-1.013632141E1,2.890489197E-1,1.014106994E1
6.239906500E0,1.061293030E-1,-1.007554779E1,4.330494690E-1,1.008540820E1
6.249918500E0,3.403921509E-1,-1.005159760E1,5.297483826E-1,1.007130152E1
6.259931500E0,4.749623108E-1,-1.001193008E1,6.581813049E-1,1.004477654E1
6.269943500E0,5.511538696E-1,-9.858798523E0,7.397616577E-1,9.901864785E0
6.279955500E0,5.851332092E-1,-9.638905792E0,7.961943054E-1,9.689417481E0
6.289967500E0,5.143304443E-1,-9.452992401E0,8.481362915E-1,9.504890126E0
6.299979500E0,3.938310242E-1,-9.331744537E0,8.807684326E-1,9.381487729E0
6.309992500E0,2.240840149E-1,-9.272617493E0,8.581654358E-1,9.314939438E0
6.320004500E0,1.062789917E-2,-9.247619476E0,7.738906860E-1,9.279950739E0
6.330016500E0,-1.844165039E-1,-9.251960449E0,6.553372192E-1,9.276974101E0
6.340028500E0,-3.519181824E-1,-9.294771423E0,5.769003296E-1,9.319304492E0
6.350040500E0,-5.953120422E-1,-9.406289520E0,4.685256958E-1,9.436747072E0
6.360053500E0,-8.873547363E-1,-9.521549835E0,3.719764709E-1,9.570040553E0
6.370065500E0,-1.133742371E0,-9.643695831E0,2.616558838E-1,9.713634997E0
6.380077500E0,-1.371448059E0,-9.773326263E0,1.561253357E-1,9.870316669E0
6.390089500E0,-1.554816742E0,-9.920619965E0,8.996292114E-2,1.004212373E1
6.400102500E0,-1.658251648E0,-1.012015503E1,5.373825073E-2,1.025525349E1
6.410114500E0,-1.711989899E0,-1.032627640E1,6.227050781E-2,1.046741474E1
6.420126500E0,-1.712438965E0,-1.049557434E1,1.121168518E-1,1.063494702E1
6.430138500E0,-1.671424255E0,-1.053763687E1,2.366578674E-1,1.067199404E1
6.440150500E0,-1.547182617E0,-1.039842636E1,4.342469788E-1,1.052186368E1
6.450163500E0,-1.339863739E0,-1.009515701E1,6.123765564E-1,1.020207994E1
6.460175500E0,-1.084943848E0,-9.821675720E0,7.204518127E-1,9.907646942E0
6.470187500E0,-8.512797546E-1,-9.687554626E0,7.548802185E-1,9.754139429E0
6.480199500E0,-6.409671021E-1,-9.693542175E0,7.424560547E-1,9.743040579E0
6.490211500E0,-4.369413757E-1,-9.749376068E0,6.963519287E-1,9.783974524E0
6.500224500E0,-2.670446777E-1,-9.771380310E0,6.652166748E-1,9.797637432E0
6.510236500E0,-1.368154907E-1,-9.782457275E0,6.746470642E-1,9.806647617E0
6.520248500E0,-5.089416504E-2,-9.776020660E0,7.042854309E-1,9.801489078E0
6.530260500E0,-2.095642090E-2,-9.751621399E0,6.979985046E-1,9.776592504E0
6.540272500E0,-1.047821045E-2,-9.657916260E0,6.354286194E-1,9.678802912E0
6.550285500E0,-2.185455322E-2,-9.514065399E0,4.944218445E-1,9.526928729E0
6.560297500E0,-5.388793945E-2,-9.406588898E0,3.112028503E-1,9.411889599E0
6.570309500E0,-1.225950623E-1,-9.401349792E0,1.326242065E-1,9.403084422E0
6.580321500E0,-2.378553772E-1,-9.463620300E0,3.817062378E-2,9.466685870E0
6.590334500E0,-3.617976379E-1,-9.585616608E0,1.541793823E-2,9.592454378E0
6.600346500E0,-4.640350342E-1,-9.678722992E0,3.308120728E-2,9.689896885E0
6.610358500E0,-5.499563599E-1,-9.727072449E0,9.131011963E-2,9.743034843E0
6.620370500E0,-5.996530151E-1,-9.738897858E0,1.847158813E-1,9.759089874E0
6.630382500E0,-6.041436768E-1,-9.727521515E0,3.264710999E-1,9.751730502E0
6.640395500E0,-5.574407959E-1,-9.704469452E0,4.385879517E-1,9.730355953E0
6.650407500E0,-4.863386536E-1,-9.711355133E0,5.498066711E-1,9.739056997E0
6.660419500E0,-3.966751099E-1,-9.746382294E0,6.092330933E-1,9.773458135E0
6.670431500E0,-3.403921509E-1,-9.792935486E0,5.770500183E-1,9.815825944E0
6.680443500E0,-2.923420715E-1,-9.836794281E0,4.543052673E-1,9.851618085E0
6.690456500E0,-2.357597351E-1,-9.869576111E0,2.541714478E-1,9.875662934E0
6.700468500E0,-2.164498901E-1,-9.887089691E0,1.945953369E-2,9.889477832E0
6.710480500E0,-2.161505127E-1,-9.892628174E0,-1.529818726E-1,9.896171820E0
6.720492500E0,-2.633024597E-1,-9.905651093E0,-2.576142883E-1,9.912498014E0
6.730504500E0,-3.110531616E-1,-9.883646851E0,-2.746788025E-1,9.892354501E0
6.740517500E0,-3.632945251E-1,-9.832303619E0,-2.016307068E-1,9.841078819E0
6.750529500E0,-4.037104797E-1,-9.768835602E0,-6.616241455E-2,9.777397846E0
6.760541500E0,-4.421804810E-1,-9.756860504E0,1.089733887E-1,9.767483078E0
6.770553500E0,-5.336402893E-1,-9.739197235E0,2.664459229E-1,9.757444756E0
6.780566500E0,-5.903723145E-1,-9.709109802E0,3.917353821E-1,9.734927284E0
6.790578500E0,-6.363267517E-1,-9.642348633E0,4.969665527E-1,9.676092943E0
6.800590500E0,-6.810836792E-1,-9.620344391E0,5.679190063E-1,9.661130015E0
6.810602500E0,-7.539820862E-1,-9.648934937E0,6.011499023E-1,9.697000340E0
6.820614500E0,-8.360115051E-1,-9.682016144E0,6.101312256E-1,9.737176796E0
6.830627500E0,-9.150471497E-1,-9.685608673E0,6.007008362E-1,9.747264650E0
6.840639500E0,-9.874964905E-1,-9.662406921E0,5.972579956E-1,9.731082876E0
6.850651500E0,-1.048419800E0,-9.608219604E0,5.587879944E-1,9.681389986E0
6.860663500E0,-1.072968750E0,-9.573491821E0,5.754034424E-1,9.650600847E0
6.870675500E0,-1.065334625E0,-9.598938904E0,6.027964783E-1,9.676669341E0
6.880688500E0,-1.052611084E0,-9.700128479E0,6.183641052E-1,9.776648545E0
6.890700500E0,-1.039737854E0,-9.863738251E0,6.468049622E-1,9.939453896E0
6.900712500E0,-1.037941589E0,-1.003123993E1,6.024971008E-1,1.010277685E1
6.910724500E0,-1.048569489E0,-1.012554382E1,5.200186157E-1,1.019296596E1
6.920737500E0,-1.037642212E0,-1.015742752E1,4.306544495E-1,1.021936879E1
6.930749500E0,-1.027164001E0,-1.013377670E1,3.637435913E-1,1.019219336E1
6.940761500E0,-9.810598755E-1,-1.005728577E1,3.115022278E-1,1.010982241E1
6.950773500E0,-8.987310791E-1,-9.947414246E0,3.119512939E-1,9.992801476E0
6.960785500E0,-7.688012695E-1,-9.822124786E0,3.338058472E-1,9.857820096E0
6.970798500E0,-5.614823914E-1,-9.705517273E0,4.041595459E-1,9.730142494E0
6.980810500E0,-3.309617615E-1,-9.625284119E0,4.698728943E-1,9.642427629E0
6.990822500E0,-1.047821045E-1,-9.597591705E0,5.032534790E-1,9.611347975E0
7.000834500E0,8.038284302E-2,-9.587412872E0,5.405259705E-1,9.602974295E0
7.010846500E0,2.139051819E-1,-9.590706024E0,5.399272156E-1,9.608273459E0
7.020859500E0,2.992277527E-1,-9.566755829E0,5.069956970E-1,9.584852580E0
7.030871500E0,3.947291565E-1,-9.562564545E0,4.302053833E-1,9.580372041E0
7.040883500E0,5.128335571E-1,-9.595346375E0,4.041595459E-1,9.617536859E0
7.050895500E0,6.110293579E-1,-9.605525208E0,3.276686096E-1,9.630515983E0
7.060908500E0,7.447013855E-1,-9.605525208E0,2.215393066E-1,9.636896509E0
7.070920750E0,8.806187439E-1,-9.597591705E0,1.184037781E-1,9.638634518E0
7.080932750E0,9.500743103E-1,-9.595795441E0,-2.933898926E-2,9.642758532E0
7.090944750E0,9.857002258E-1,-9.630523224E0,-1.902543640E-1,9.682705160E0
7.100956750E0,9.596543884E-1,-9.742191010E0,-2.847079468E-1,9.793481548E0
7.110969750E0,9.683363342E-1,-9.884245605E0,-2.478845215E-1,9.934658181E0
7.120981750E0,9.463320923E-1,-9.974807281E0,-1.519340515E-1,1.002074891E1
7.130993750E0,8.656498718E-1,-9.999505920E0,-5.313949585E-2,1.003704599E1
7.141005750E0,7.556286621E-1,-9.969418488E0,1.451980591E-2,9.998024329E0
7.151017750E0,6.065386963E-1,-9.902058563E0,2.814147949E-2,9.920657484E0
7.161030750E0,4.189787292E-1,-9.799372101E0,-7.484436035E-3,9.808327725E0
7.171042750E0,2.489323425E-1,-9.709409180E0,-1.052311707E-1,9.713169798E0
7.181054750E0,1.221459961E-1,-9.694290619E0,-2.004331970E-1,9.697131726E0
7.191066750E0,8.217910767E-2,-9.685309296E0,-2.742297363E-1,9.689539282E0
7.201079750E0,6.526428223E-2,-9.676926727E0,-2.775228882E-1,9.681125413E0
7.211091750E0,6.466552734E-2,-9.630822601E0,-2.600093079E-1,9.634548793E0
7.221103750E0,7.304809570E-2,-9.565258942E0,-2.371069336E-1,9.568476072E0
7.231115750E0,4.131408691E-2,-9.539362793E0,-2.327659607E-1,9.542291619E0
7.241127750E0,-2.829116821E-2,-9.526190186E0,-3.001258850E-1,9.530958786E0
7.251140750E0,-1.910028076E-1,-9.532626801E0,-4.501139832E-1,9.545158898E0
7.261152750E0,-3.809577942E-1,-9.579928436E0,-6.873706055E-1,9.612108823E0
7.271164750E0,-6.066883850E-1,-9.698631592E0,-9.330097961E-1,9.762276007E0
7.281176750E0,-8.457412720E-1,-9.872120819E0,-1.097068634E0,9.968831795E0
7.291188750E0,-1.091380463E0,-1.013063324E1,-1.168021088E0,1.025597945E1
7.301201750E0,-1.309476929E0,-1.045785278E1,-1.151854706E0,1.060227258E1
7.311213750E0,-1.537003784E0,-1.076965439E1,-1.077010345E0,1.093196174E1
7.321225750E0,-1.745071106E0,-1.093266541E1,-1.048719177E0,1.112062309E1
7.331237750E0,-1.994901581E0,-1.096290253E1,-1.115480347E0,1.119862315E1
7.341250750E0,-2.232756958E0,-1.091904373E1,-1.272503815E0,1.121739656E1
7.351262750E0,-2.408341827E0,-1.086306015E1,-1.494791565E0,1.122677995E1
7.361274750E0,-2.510279846E0,-1.079435303E1,-1.745669861E0,1.121904298E1
7.371286750E0,-2.509681091E0,-1.067849396E1,-1.946103058E0,1.114073828E1
7.381298750E0,-2.413281555E0,-1.044183609E1,-2.073637848E0,1.091585282E1
7.391311750E0,-2.233804779E0,-1.009755203E1,-2.124681702E0,1.055768503E1
7.401323750E0,-2.037413177E0,-9.613309021E0,-2.107018433E0,1.005018853E1
7.411335750E0,-1.849404144E0,-9.036558380E0,-2.030976563E0,9.444815977E0
7.421347750E0,-1.666484528E0,-8.468040619E0,-1.923200684E0,8.842148126E0
7.431360750E0,-1.540147247E0,-7.999514923E0,-1.773362274E0,8.337212142E0
7.441372750E0,-1.493144989E0,-7.648794250E0,-1.639091492E0,7.963677314E0
7.451384750E0,-1.517993317E0,-7.449408875E0,-1.494791565E0,7.748057699E0
7.461396750E0,-1.647773438E0,-7.485783234E0,-1.373543701E0,7.787087403E0
7.471408750E0,-1.842368774E0,-7.884853363E0,-1.308129730E0,8.202221568E0
7.481421750E0,-1.940714264E0,-8.602012024E0,-1.251248016E0,8.906548395E0
7.491433750E0,-1.748963013E0,-9.336684265E0,-1.215173035E0,9.576491539E0
7.501445750E0,-1.308129730E0,-9.877808990E0,-1.237925720E0,1.004065605E1
7.511457750E0,-8.050259399E-1,-1.019589752E1,-1.346300354E0,1.031585758E1
7.521469750E0,-3.188369751E-1,-1.030023056E1,-1.517693939E0,1.041632380E1
7.531482750E0,1.139131165E-1,-1.027942383E1,-1.670077057E0,1.041483019E1
7.541494750E0,4.471202087E-1,-1.030202682E1,-1.778601379E0,1.046399045E1
7.551506750E0,7.135661316E-1,-1.039887543E1,-1.861379242E0,1.058822551E1
7.561518750E0,9.467811584E-1,-1.052611084E1,-1.964365082E0,1.074961088E1
7.571531750E0,1.218915253E0,-1.060394897E1,-2.035018158E0,1.086603825E1
7.581543750E0,1.514400787E0,-1.059406952E1,-1.976938934E0,1.088283080E1
7.591555750E0,1.784139862E0,-1.050470535E1,-1.726210327E0,1.079406280E1
7.601567750E0,1.956880646E0,-1.037238052E1,-1.304237823E0,1.063563331E1
7.611579750E0,2.073937225E0,-1.021460861E1,-8.634045410E-1,1.045872421E1
7.621592750E0,2.174677734E0,-9.948312378E0,-5.749543762E-1,1.019944680E1
7.631604750E0,2.222877502E0,-9.656718750E0,-4.821473694E-1,9.920981176E0
7.641616750E0,2.105521545E0,-9.436227264E0,-5.851332092E-1,9.685968554E0
7.651628750E0,1.498982849E0,-9.396260376E0,-8.681945801E-1,9.554602057E0
7.661640750E0,4.044589233E-1,-9.420360260E0,-1.085093536E0,9.491269801E0
7.671653750E0,-7.599696350E-1,-9.334438934E0,-1.140029297E0,9.434456575E0
7.681665750E0,-1.597328339E0,-9.160201263E0,-1.150357819E0,9.369315243E0
7.691677750E0,-2.327360229E0,-8.927884369E0,-1.182091827E0,9.301670067E0
7.701689750E0,-3.141367493E0,-8.642727356E0,-1.321002960E0,9.290316178E0
7.711702750E0,-4.008065186E0,-8.478069763E0,-1.428329773E0,9.485904247E0
7.721714750E0,-4.919070740E0,-8.518186340E0,-1.561103668E0,9.959608433E0
7.731726750E0,-5.870641937E0,-8.656349030E0,-1.819017334E0,1.061629122E1
7.741738750E0,-6.729106750E0,-8.859177246E0,-2.144590302E0,1.132983525E1
7.751750750E0,-7.236551514E0,-9.057215424E0,-2.302062836E0,1.181948909E1
7.761763750E0,-7.212152252E0,-9.197922821E0,-2.164648590E0,1.188707819E1
7.771775750E0,-6.587950287E0,-9.233399048E0,-1.890418854E0,1.149914912E1
7.781787750E0,-5.627547455E0,-9.194330292E0,-1.539847870E0,1.088926679E1
7.791799750E0,-4.675078125E0,-9.274862823E0,-1.008752289E0,1.043537335E1
7.801812750E0,-3.895798645E0,-9.484427032E0,-3.236270142E-1,1.025847638E1
7.811824750E0,-3.263962555E0,-9.732161865E0,4.254153442E-1,1.027372398E1
7.821836750E0,-2.799777832E0,-9.924362183E0,1.175206146E0,1.037847918E1
7.831848750E0,-2.349813538E0,-1.002136047E1,1.821412354E0,1.045307765E1
7.841860750E0,-1.843117218E0,-1.007734406E1,2.249522095E0,1.048857921E1
7.851873750E0,-1.318009186E0,-1.027687912E1,2.519111481E0,1.066289432E1
7.861885750E0,-8.237370300E-1,-1.055859329E1,2.632575531E0,1.091296884E1
7.871897750E0,-2.418969727E-1,-1.068283493E1,2.640359344E0,1.100695116E1
7.881909750E0,3.968247986E-1,-1.071187454E1,2.521207123E0,1.101173063E1
7.891922750E0,1.032103729E0,-1.074765015E1,2.111359406E0,1.100159354E1
7.901934750E0,1.693278809E0,-1.082144669E1,1.291214905E0,1.102896810E1
7.911946750E0,2.387235718E0,-1.091859467E1,3.534150696E-1,1.118210651E1
7.921958750E0,2.988235931E0,-1.098071548E1,-2.713856506E-1,1.138329112E1
7.931970750E0,3.619922333E0,-1.088865692E1,-5.291496277E-1,1.148680489E1
7.941983750E0,4.126019897E0,-1.069570816E1,-6.114784241E-1,1.148024909E1
7.951995750E0,4.545896759E0,-1.053209839E1,-6.721023560E-1,1.149095276E1
7.962007750E0,4.910837860E0,-1.038645126E1,-7.656578064E-1,1.151437928E1
7.972019750E0,5.011728058E0,-1.026056305E1,-7.214996338E-1,1.144190255E1
7.982031750E0,4.987179108E0,-1.020607635E1,-5.863307190E-1,1.137452125E1
7.992044750E0,4.985083466E0,-1.011671219E1,-4.819976807E-1,1.128854483E1
8.002056750E0,5.103636932E0,-9.877060547E0,-5.792953491E-1,1.113279022E1
8.012068750E0,5.409600677E0,-9.452842712E0,-1.174008636E0,1.095437406E1
8.022080750E0,5.805976410E0,-8.932375031E0,-2.276166687E0,1.089392586E1
8.032093750E0,6.031856689E0,-8.609496460E0,-3.127446442E0,1.096757246E1
8.042105750E0,6.066135406E0,-8.799451447E0,-3.204087067E0,1.115771117E1
8.052117750E0,5.809419250E0,-9.547895050E0,-2.847678223E0,1.153346969E1
8.062129750E0,5.057981873E0,-1.052087173E1,-2.362836456E0,1.191028626E1
8.072137583E0,4.006418610E0,-1.095811249E1,-1.129102020E0,1.172205147E1
8.082150583E0,2.960094452E0,-1.059796143E1,8.457412720E-2,1.100391286E1
8.092162583E0,2.091151428E0,-1.002944366E1,4.067042542E-1,1.025319769E1
8.102174583E0,1.430724792E0,-9.682465210E0,2.764750671E-1,9.791503686E0
8.112186583E0,1.092727661E0,-9.348210297E0,1.116677856E-1,9.412521404E0
8.122199583E0,1.023421783E0,-8.911119232E0,1.817221069E-1,8.971536158E0
8.132211583E0,1.023870850E0,-8.566086731E0,3.522175598E-1,8.634246383E0
8.142223583E0,1.046773224E0,-8.433163147E0,5.388793945E-1,8.514949550E0
8.152235583E0,1.066232758E0,-8.707542572E0,7.556286621E-1,8.805062442E0
8.162247583E0,1.007255402E0,-9.485025787E0,1.011746063E0,9.591866749E0
8.172260583E0,9.054670715E-1,-1.058419006E1,1.172661438E0,1.068737970E1
8.182272583E0,7.699987793E-1,-1.162362854E1,8.273295593E-1,1.167844650E1
8.192284583E0,3.838018799E-1,-1.255798553E1,-7.210505676E-1,1.258452297E1
8.202296583E0,-5.965095520E-1,-1.351060455E1,-4.460873566E0,1.424049339E1
8.212309583E0,-1.946851501E0,-1.409858185E1,-8.920699310E0,1.679699726E1
8.222321583E0,-2.918031921E0,-1.323412949E1,-9.580078125E0,1.659623422E1
8.232333583E0,-3.167413330E0,-1.133353180E1,-6.408772888E0,1.339976941E1
8.242345583E0,-2.877316589E0,-9.753567352E0,-2.912044373E0,1.057785561E1
8.252357583E0,-2.498304749E0,-8.876840515E0,-8.872050476E-1,9.264283941E0
8.262370583E0,-2.183509369E0,-8.483608246E0,-3.906875610E-2,8.760185409E0
8.272382583E0,-1.835333405E0,-8.374784546E0,9.969268799E-2,8.574112405E0
8.282394583E0,-1.237476654E0,-8.527317352E0,-1.118174744E-1,8.617365772E0
8.292406583E0,-4.026626587E-1,-8.872798920E0,-3.523672485E-1,8.888917851E0
8.302418583E0,3.944297791E-1,-9.293274536E0,-3.692820740E-1,9.308968563E0
8.312431583E0,1.050365753E0,-9.718989258E0,-4.155358887E-1,9.784410584E0
8.322443583E0,1.603914642E0,-1.002854553E1,-6.042933655E-1,1.017395882E1
8.332455583E0,2.089355164E0,-1.013347733E1,-9.801617432E-1,1.039295361E1
8.342467583E0,2.489024048E0,-1.005578888E1,-1.483265533E0,1.046490360E1
8.352480583E0,2.750081177E0,-9.881850586E0,-1.981279907E0,1.044697983E1
8.362492583E0,2.800675964E0,-9.665700073E0,-2.294877777E0,1.032162816E1
8.372504583E0,2.587219849E0,-9.481582947E0,-2.287243652E0,1.009086742E1
8.382516583E0,2.120640106E0,-9.316176910E0,-2.055824890E0,9.773161344E0
8.392528583E0,1.576371918E0,-9.178163910E0,-1.724563751E0,9.470890207E0
8.402541583E0,1.186582489E0,-9.027277679E0,-1.411115570E0,9.213629440E0
8.412553583E0,1.006956024E0,-8.840017090E0,-1.232686615E0,8.982170054E0
8.422565583E0,1.034498749E0,-8.667126617E0,-1.279090118E0,8.821867319E0
8.432577583E0,1.171014862E0,-8.451275482E0,-1.444346466E0,8.653407987E0
8.442590583E0,1.348246307E0,-8.311765594E0,-1.545985107E0,8.561149768E0
8.452602583E0,1.544488220E0,-8.356821899E0,-1.506018219E0,8.630759352E0
8.462614583E0,1.728605347E0,-8.560248871E0,-1.337169342E0,8.834815166E0
8.472626583E0,1.926194458E0,-8.894803162E0,-1.143172760E0,9.172491065E0
8.482638583E0,2.168839874E0,-9.289083252E0,-9.397457886E-1,9.585095524E0
8.492651583E0,2.427352295E0,-9.688303070E0,-7.536827087E-1,1.001615161E1
8.502663583E0,2.627635803E0,-1.003797592E1,-6.276448059E-1,1.039516082E1
8.512675583E0,2.749632111E0,-1.023077499E1,-4.454736328E-1,1.060319199E1
8.522687583E0,2.886746979E0,-1.016027161E1,-1.793270874E-1,1.056392850E1
8.532700583E0,3.011587372E0,-9.775721283E0,4.385879517E-2,1.022918905E1
8.542712583E0,3.086282043E0,-9.369316406E0,2.442919922E-1,9.867568361E0
8.552724583E0,3.158132629E0,-9.172475739E0,4.176315308E-1,9.709919102E0
8.562736583E0,3.209625549E0,-9.376351776E0,3.242257690E-1,9.915784949E0
8.572748583E0,3.198997650E0,-9.922565918E0,-1.308279419E-1,1.042631365E1
8.582761583E0,3.054548035E0,-1.067984116E1,-7.694000244E-1,1.113468667E1
8.592773583E0,2.646346893E0,-1.160536652E1,-1.331930237E0,1.197755075E1
8.602785583E0,1.912572784E0,-1.245559845E1,-1.828896790E0,1.273360636E1
8.612797583E0,1.128203888E0,-1.304477325E1,-2.263592834E0,1.328769377E1
8.622810583E0,5.266049194E-1,-1.336031708E1,-2.731370087E0,1.364682262E1
8.632822583E0,1.841171265E-2,-1.345028000E1,-3.251388702E0,1.383769849E1
8.642834583E0,-4.213737488E-1,-1.323847046E1,-3.635489960E0,1.373504435E1
8.652846583E0,-7.881111145E-1,-1.282637741E1,-3.743565216E0,1.338474345E1
8.662858583E0,-1.035696259E0,-1.217672836E1,-3.627406769E0,1.274768450E1
8.672871583E0,-1.143472137E0,-1.144175674E1,-3.418291626E0,1.199608451E1
8.682883583E0,-1.196761322E0,-1.094568832E1,-3.149750061E0,1.145256548E1
8.692895583E0,-1.137185211E0,-1.075663147E1,-2.815195770E0,1.117692435E1
8.702907583E0,-1.011746063E0,-1.078896423E1,-2.337239685E0,1.108548910E1
8.712920583E0,-8.637039185E-1,-1.102023331E1,-1.782792664E0,1.119686904E1
8.722932583E0,-6.996450806E-1,-1.132604736E1,-1.321302338E0,1.142430269E1
8.732944583E0,-7.206015015E-1,-1.143696671E1,-8.794212341E-1,1.149333962E1
8.742956583E0,-9.237290955E-1,-1.134041748E1,-5.276527405E-1,1.139020463E1
8.752968583E0,-1.174008636E0,-1.088566315E1,-3.314108276E-1,1.095380261E1
8.762981583E0,-1.398242340E0,-1.007479935E1,-2.201921082E-1,1.017374799E1
8.772993583E0,-1.676513672E0,-9.217981110E0,-1.371148682E-1,9.370201402E0
8.783005583E0,-2.023641815E0,-8.461604004E0,-1.874102783E-1,8.702240581E0
8.793017583E0,-2.412832489E0,-7.924371185E0,-3.848497009E-1,8.292498333E0
8.803030583E0,-2.841690674E0,-7.669151917E0,-8.008346558E-1,8.217811944E0
8.813042583E0,-3.283272400E0,-7.641609192E0,-1.413211212E0,8.436304560E0
8.823054583E0,-3.595822449E0,-7.764503632E0,-2.183209991E0,8.830847162E0
8.833066583E0,-3.743415527E0,-7.957901459E0,-3.135679321E0,9.336693218E0
8.843078583E0,-3.578159180E0,-8.177195435E0,-4.130809937E0,9.835310825E0
8.853091583E0,-2.864892426E0,-8.325836334E0,-4.893174591E0,1.007324758E1
8.863103583E0,-1.745669861E0,-8.270900574E0,-5.383405151E0,1.002178680E1
8.873115583E0,-7.164102173E-1,-7.995024261E0,-5.551056519E0,9.759502293E0
8.883127583E0,5.224136353E-2,-7.594008179E0,-5.279820557E0,9.249226697E0
8.893140583E0,5.257067871E-1,-7.193590851E0,-4.691693573E0,8.604423603E0
8.903152583E0,8.517288208E-1,-6.820716248E0,-3.788621521E0,7.848647345E0
8.913164583E0,1.056053925E0,-6.567143555E0,-2.879711609E0,7.248128263E0
8.923176583E0,1.231489105E0,-6.473139038E0,-1.973945160E0,6.878557546E0
8.933188583E0,1.393751678E0,-6.503076782E0,-1.261576538E0,6.769352018E0
8.943201583E0,1.526824951E0,-6.571783905E0,-6.063890076E-1,6.774012530E0
8.953213583E0,1.617386627E0,-6.691983948E0,-2.306703186E-1,6.888526508E0
8.963225583E0,1.651216278E0,-6.793173523E0,-1.603166199E-1,6.992812247E0
8.973237583E0,1.633403320E0,-6.912774811E0,-2.761756897E-1,7.108497380E0
8.983250583E0,1.594035187E0,-7.063661041E0,-4.445755005E-1,7.254922664E0
8.993262583E0,1.570384369E0,-7.246281281E0,-7.044351196E-1,7.447880793E0
9.003274583E0,1.517993317E0,-7.525001678E0,-1.102756805E0,7.755386937E0
9.013286583E0,1.459315338E0,-7.891589355E0,-1.617686005E0,8.186799852E0
9.023298583E0,1.408570862E0,-8.343649292E0,-2.289788361E0,8.766053052E0
9.033311583E0,1.423839111E0,-8.883277130E0,-3.183430023E0,9.543278111E0
9.043323583E0,1.499731293E0,-9.515262909E0,-4.383334808E0,1.058314916E1
9.053335583E0,1.666634216E0,-1.019993912E1,-5.670807495E0,1.178874401E1
9.063347583E0,1.946252747E0,-1.082608704E1,-6.523883514E0,1.278878870E1
9.073360458E0,2.288291473E0,-1.133113678E1,-6.470893707E0,1.324776977E1
9.083372458E0,2.518961792E0,-1.166943329E1,-5.554499359E0,1.316712971E1
9.093384458E0,2.534828796E0,-1.172317154E1,-4.442162476E0,1.279026643E1
9.103396458E0,2.418370972E0,-1.144175674E1,-3.534749451E0,1.221706877E1
9.113408458E0,2.272125092E0,-1.094104797E1,-3.018173676E0,1.157490629E1
9.123421458E0,2.020648041E0,-1.043914169E1,-2.937790833E0,1.103128790E1
9.133433458E0,1.641187134E0,-9.957892456E0,-3.115770721E0,1.056225092E1
9.143445458E0,1.298998718E0,-9.408385162E0,-3.455713806E0,1.010678321E1
9.153457458E0,1.198557587E0,-8.783285065E0,-3.716022491E0,9.612047647E0
9.163470458E0,1.453477478E0,-8.136629791E0,-3.848197632E0,9.117344249E0
9.173482458E0,1.936373291E0,-7.686216431E0,-3.828438721E0,8.802522796E0
9.183494458E0,2.346670074E0,-7.548802185E0,-3.567082214E0,8.672678386E0
9.193506458E0,2.529589691E0,-7.957602081E0,-3.056643677E0,8.891868502E0
9.203518458E0,2.516566772E0,-9.205107880E0,-2.380948792E0,9.835447958E0
9.213531458E0,2.370320892E0,-1.086051544E1,-1.778601379E0,1.125755922E1
9.223543458E0,1.798210602E0,-1.246936981E1,-1.100062408E0,1.264629915E1
9.233555458E0,6.469546509E-1,-1.377076355E1,-2.188449097E-1,1.378768915E1
9.243567458E0,-8.542735291E-1,-1.449929855E1,7.586224365E-1,1.454424112E1
9.253580458E0,-2.110311584E0,-1.442699890E1,1.019829254E0,1.461614737E1
9.263592458E0,-2.989882507E0,-1.355655899E1,2.371069336E-1,1.388437643E1
9.273604458E0,-3.733685760E0,-1.213257019E1,-1.255139923E0,1.275598075E1
9.283616458E0,-4.311035156E0,-1.065798660E1,-3.179987183E0,1.192853809E1
9.293628458E0,-4.292773132E0,-9.419911194E0,-4.223467255E0,1.118035347E1
9.303641458E0,-3.466491394E0,-8.282127228E0,-3.656596069E0,9.694374081E0
9.313653458E0,-2.116299133E0,-7.442822571E0,-2.026635590E0,7.998848771E0
9.323665458E0,-7.659571838E-1,-7.243437195E0,2.814147949E-2,7.283877041E0
9.333677458E0,7.409591675E-2,-7.666906586E0,2.029030609E0,7.931198649E0
9.343690458E0,2.685415649E-1,-8.271349640E0,3.723656616E0,9.074853058E0
9.353702458E0,3.718267822E-1,-8.767268372E0,4.827760620E0,1.001551409E1
9.363714458E0,6.355783081E-1,-9.085955658E0,5.013674011E0,1.039689747E1
9.373726458E0,9.053173828E-1,-9.327553253E0,4.756658478E0,1.050945523E1
9.383739458E0,1.070124664E0,-9.552685089E0,4.442012787E0,1.058916601E1
9.393751458E0,1.156195679E0,-9.767638092E0,3.843706970E0,1.056019061E1
9.403763458E0,1.107247467E0,-9.993668060E0,2.863245850E0,1.045454806E1
9.413775458E0,1.001417542E0,-1.002929398E1,1.617087250E0,1.020806279E1
9.423787458E0,7.101232910E-1,-9.815388794E0,-7.876620483E-1,9.872514562E0
9.433800458E0,3.451821899E-1,-9.284891968E0,-4.137096863E0,1.017073941E1
9.443812458E0,5.309458923E-1,-8.433612213E0,-5.907914429E0,1.031073089E1
9.453824458E0,6.815327454E-1,-7.919431458E0,-6.172713776E0,1.006400898E1
9.463836458E0,1.541793823E-1,-8.287665710E0,-4.548740845E0,9.455168824E0
9.473849458E0,-7.340734863E-1,-9.163793793E0,-2.444716187E0,9.512655665E0
9.483861458E0,-1.232836304E0,-9.741442566E0,-7.777825928E-1,9.849900222E0
9.493873458E0,-1.419198761E0,-9.926757202E0,4.692741394E-1,1.003866783E1
9.503885458E0,-1.485510864E0,-1.013227982E1,1.509461060E0,1.035124676E1
9.513897458E0,-1.371597748E0,-1.021116577E1,2.199226685E0,1.053497911E1
9.523910458E0,-7.689509583E-1,-1.001537292E1,2.470163269E0,1.034411364E1
9.533922458E0,3.767665100E-1,-9.665700073E0,2.175875244E0,9.914743768E0
9.543934458E0,1.440903625E0,-9.427545319E0,1.353934479E0,9.632650340E0
9.553946458E0,2.010618896E0,-9.362730103E0,4.213737488E-1,9.585450389E0
9.563959458E0,2.114353180E0,-9.361831970E0,-2.454895020E-1,9.600763110E0
9.573971458E0,1.969304810E0,-9.396410065E0,-5.839356995E-1,9.618298417E0
9.583983458E0,1.656305695E0,-9.421108704E0,-6.327342224E-1,9.586500423E0
9.593995458E0,1.301094360E0,-9.352251892E0,-5.060975647E-1,9.455876307E0
9.604007458E0,1.079704742E0,-9.173822937E0,-3.309617615E-1,9.243069041E0
9.614020458E0,1.021326141E0,-8.977431335E0,-2.052232361E-1,9.037670997E0
9.624032458E0,1.058448944E0,-8.868008881E0,-1.850152588E-1,8.932867755E0
9.634044458E0,1.086590424E0,-8.869056702E0,-1.761836243E-1,8.937107261E0
9.644056458E0,1.085841980E0,-8.935219116E0,-1.453477478E-1,9.002128605E0
9.654069458E0,9.873468018E-1,-9.025331726E0,-1.091230774E-1,9.079833386E0
9.664081458E0,7.939489746E-1,-9.211843872E0,-7.993377686E-2,9.246340460E0
9.674093458E0,5.906716919E-1,-9.457183685E0,-6.511459351E-2,9.475835384E0
9.684105458E0,4.073030090E-1,-9.691745911E0,-7.035369873E-2,9.700555870E0
9.694117458E0,2.630030823E-1,-9.863438873E0,-1.290316772E-1,9.867788314E0
9.704130458E0,1.523831177E-1,-1.000609222E1,-2.130070496E-1,1.000951918E1
9.714142458E0,1.236428833E-1,-1.014021332E1,-3.465293884E-1,1.014688604E1
9.724154458E0,2.261796570E-1,-1.031654663E1,-4.272116089E-1,1.032786529E1
9.734166458E0,4.225712585E-1,-1.057311310E1,-4.552033997E-1,1.059134067E1
9.744179458E0,6.732998657E-1,-1.083521805E1,-4.144880676E-1,1.086402703E1
9.754191458E0,8.782237244E-1,-1.100152222E1,-2.558180237E-1,1.103948418E1
9.764203458E0,9.669891357E-1,-1.095122681E1,-1.083746338E-1,1.099437045E1
9.774215458E0,9.752220154E-1,-1.069481003E1,-1.311273193E-1,1.073998202E1
9.784228458E0,1.073866882E0,-1.046743286E1,-3.082090759E-1,1.052688623E1
9.794240458E0,1.309177551E0,-1.041878403E1,-3.659889221E-1,1.050709067E1
9.804252458E0,1.560953979E0,-1.063164139E1,-2.239343262E-1,1.074795434E1
9.814264458E0,1.873204651E0,-1.111169312E1,9.086105347E-2,1.126884534E1
9.824276458E0,2.204465790E0,-1.185579575E1,3.426374817E-1,1.206387013E1
9.834289458E0,2.451751556E0,-1.273551636E1,3.903881836E-1,1.297524048E1
9.844301458E0,2.536026306E0,-1.354548203E1,5.905220032E-1,1.379348502E1
9.854313458E0,2.518512726E0,-1.410591660E1,9.098080444E-1,1.435783897E1
9.864325458E0,2.470462646E0,-1.424497742E1,9.936337280E-1,1.449171747E1
9.874338458E0,2.244732056E0,-1.382899246E1,8.586145020E-1,1.403627705E1
9.884350458E0,1.698368225E0,-1.278476395E1,7.903564453E-1,1.292127343E1
9.894362458E0,1.131646729E0,-1.162707138E1,7.060816956E-1,1.170333134E1
9.904374458E0,8.243357849E-1,-1.063972458E1,9.747729492E-1,1.071603709E1
9.914386458E0,6.759942627E-1,-9.736053772E0,1.513053589E0,9.876084369E0
9.924399458E0,5.400769043E-1,-8.944050751E0,1.759890289E0,9.131535507E0
9.934411458E0,3.113525391E-1,-8.461304626E0,1.470841370E0,8.593834460E0
9.944423458E0,-1.103205872E-1,-8.522078247E0,7.444020081E-1,8.555239484E0
9.954435458E0,-7.274871826E-1,-9.605974274E0,2.679428101E-2,9.633519465E0
9.964448458E0,-1.172212372E0,-1.066711761E1,-1.172062683E-1,1.073197174E1
9.974460458E0,-1.499880981E0,-1.151420609E1,-6.286926270E-2,1.161165523E1
9.984472458E0,-1.721420288E0,-1.214753906E1,-1.356179810E-1,1.226965302E1
9.994484458E0,-1.799408112E0,-1.244033020E1,-1.788780212E-1,1.257106528E1
1.000449746E1,-1.740131378E0,-1.256606873E1,4.760101318E-2,1.268607135E1
1.001450946E1,-1.536704407E0,-1.271261398E1,3.475772095E-1,1.280987216E1
1.002452146E1,-1.282383270E0,-1.288924667E1,5.069956970E-1,1.296280183E1
1.003453346E1,-1.009949799E0,-1.300450699E1,5.604345703E-1,1.305569943E1
1.004454546E1,-7.438032532E-1,-1.284059784E1,6.466552734E-1,1.287836788E1
1.005455846E1,-3.249742126E-1,-1.237401810E1,4.522096252E-1,1.238654212E1
1.006457046E1,1.989363098E-1,-1.170670578E1,-5.046006775E-1,1.171926438E1
1.007458283E1,9.069639587E-1,-1.106918152E1,-2.169139252E0,1.131611807E1
1.008459483E1,1.720671844E0,-1.073881851E1,-3.258723450E0,1.135351105E1
1.009460783E1,2.403551788E0,-1.028047165E1,-2.474953308E0,1.084391776E1
1.010461983E1,3.007695465E0,-9.571845245E0,-1.285676422E0,1.011530609E1
1.011463183E1,3.534749451E0,-8.835676117E0,-2.715353394E-1,9.520365411E0
1.012464383E1,3.864663391E0,-8.006250916E0,6.233038330E-1,8.912024715E0
1.013465583E1,3.875291290E0,-7.198081512E0,1.213077393E0,8.264491322E0
1.014466883E1,3.617527313E0,-6.486760712E0,1.310375061E0,7.541992521E0
1.015468083E1,3.248245239E0,-5.867348785E0,9.710307312E-1,6.776413475E0
1.016469283E1,2.853665771E0,-5.428461456E0,3.650907898E-1,6.143687281E0
1.017470483E1,2.455793152E0,-5.206473083E0,-3.356021118E-1,5.766360269E0
1.018471783E1,2.097737732E0,-5.173541565E0,-1.001716919E0,5.671813881E0
1.019472983E1,1.736987915E0,-5.304519196E0,-1.515298920E0,5.783699658E0
1.020474183E1,1.314716034E0,-5.491779785E0,-1.778900757E0,5.920524585E0
1.021475383E1,8.719367981E-1,-5.565276947E0,-1.836830292E0,5.925076101E0
1.022476683E1,5.462141418E-1,-5.522166595E0,-1.799408112E0,5.833570377E0
1.023477883E1,3.080593872E-1,-5.391638031E0,-1.666185150E0,5.651622263E0
1.024479083E1,7.798782349E-2,-5.254223785E0,-1.434467010E0,5.447076766E0
1.025480283E1,-1.959425354E-1,-5.150639191E0,-1.128203888E0,5.276392855E0
1.026481483E1,-4.578977966E-1,-5.179678802E0,-7.756869507E-1,5.257416964E0
1.027482783E1,-6.171665955E-1,-5.448370056E0,-3.915856934E-1,5.497178388E0
1.028483983E1,-5.616320801E-1,-6.083648987E0,-1.360670471E-1,6.111033450E0
1.029485183E1,-2.847079468E-1,-7.195387115E0,-6.406677246E-2,7.201302584E0
1.030486383E1,1.681004333E-1,-8.708889771E0,-3.520678711E-1,8.717624136E0
1.031487683E1,6.988966370E-1,-1.043180695E1,-1.284628601E0,1.053381808E1
1.032488883E1,1.189725952E0,-1.229318619E1,-2.927312622E0,1.269279456E1
1.033490083E1,1.574276276E0,-1.400367920E1,-4.774172058E0,1.487864563E1
1.034491283E1,1.977238312E0,-1.492815674E1,-6.228847046E0,1.629594644E1
1.035492583E1,2.528092804E0,-1.459479996E1,-7.229216766E0,1.648214228E1
1.036493783E1,3.010988617E0,-1.313204178E1,-7.629185028E0,1.548292730E1
1.037494983E1,3.531156921E0,-1.092293564E1,-7.401508484E0,1.365876715E1
1.038496183E1,4.172124023E0,-8.675958252E0,-6.835236053E0,1.180674902E1
1.039497383E1,4.749174042E0,-6.868466949E0,-5.910608826E0,1.023062994E1
1.040498683E1,5.092410278E0,-5.688171387E0,-4.683161316E0,8.956558272E0
1.041499883E1,5.067861328E0,-5.224435730E0,-3.269201660E0,7.979074297E0
1.042501083E1,4.754712524E0,-5.227878571E0,-1.935475159E0,7.326941356E0
1.043502283E1,4.204456787E0,-5.499264221E0,-7.768844604E-1,6.965839024E0
1.044503583E1,3.545377350E0,-5.950276337E0,-6.062393188E-2,6.926699380E0
1.045504783E1,3.005001068E0,-6.854545898E0,4.745132446E-2,7.484456060E0
1.046505983E1,2.707569580E0,-9.216334534E0,-7.460485840E-1,9.634746689E0
1.047507183E1,2.345173187E0,-1.273566605E1,-1.676513672E-1,1.295087387E1
1.048508483E1,1.934427338E0,-1.533381317E1,1.359472961E0,1.551502505E1
1.049509683E1,1.793121185E0,-1.763662445E1,4.119433594E-1,1.773232931E1
1.050510883E1,1.613345032E0,-2.005993515E1,-3.025807800E0,2.035090645E1
1.051512083E1,8.208929443E-1,-2.051394104E1,-6.075715485E0,2.141051052E1
1.052513283E1,-7.334747314E-3,-1.657084076E1,-5.572312317E0,1.748266232E1
1.053514583E1,-2.594105530E-1,-1.144250519E1,-4.814588013E0,1.241686259E1
1.054515783E1,-5.077441406E-1,-7.813451843E0,-3.952979736E0,8.771196191E0
1.055516983E1,-6.954537964E-1,-5.715714111E0,-2.203567657E0,6.165124022E0
1.056518183E1,-6.831793213E-1,-4.759801941E0,-5.227130127E-1,4.836907834E0
1.057519483E1,-4.962181091E-1,-4.425696716E0,5.748046875E-1,4.490370170E0
1.058520683E1,-2.782713318E-1,-4.515809326E0,1.394051056E0,4.734273667E0
1.059521883E1,-4.460723877E-2,-4.952151947E0,2.157164154E0,5.401773403E0
1.060523083E1,1.519340515E-1,-5.780679016E0,3.201991425E0,6.609998708E0
1.061524383E1,2.800675964E-1,-6.905140686E0,4.000131683E0,7.985014667E0
1.062525583E1,4.207749939E-1,-8.306975555E0,4.272714844E0,9.350881595E0
1.063526783E1,7.101232910E-1,-9.949809265E0,4.492457886E0,1.094007118E1
1.064527983E1,1.104104004E0,-1.147169449E1,4.436773682E0,1.234924211E1
1.065529183E1,1.539847870E0,-1.254107071E1,4.091292114E0,1.328112409E1
1.066530483E1,1.970652008E0,-1.308728485E1,3.514242096E0,1.369344338E1
1.067531683E1,2.261048126E0,-1.317470306E1,2.831960907E0,1.366400900E1
1.068532883E1,2.279310150E0,-1.283670593E1,1.545685730E0,1.312880110E1
1.069534083E1,2.383493500E0,-1.212493607E1,-5.763015747E0,1.363478883E1
1.070535383E1,1.911974030E0,-1.067280579E1,-7.795489197E0,1.335417837E1
1.071536583E1,9.488768005E-1,-9.347461853E0,-4.933291168E0,1.061191651E1
1.072537783E1,3.182382202E-1,-8.600365448E0,-3.172802124E0,9.172471571E0
1.073538983E1,8.232879639E-3,-8.243806915E0,-1.662293243E0,8.409734780E0
1.074540183E1,-5.688171387E-2,-8.033943329E0,1.496887207E-2,8.034158637E0
1.075541483E1,-8.996292114E-2,-8.202941895E0,1.762285309E0,8.390589882E0
1.076542683E1,-1.954934692E-1,-8.705746307E0,3.283871155E0,9.306559312E0
1.077543883E1,-1.721420288E-1,-9.045539703E0,4.295766907E0,1.001524012E1
1.078545083E1,-2.903961182E-2,-8.927734680E0,4.371659088E0,9.940658580E0
1.079546383E1,-6.706054688E-2,-8.565637665E0,3.690425720E0,9.327051395E0
1.080547583E1,-3.920347595E-1,-8.392298126E0,2.635269928E0,8.805055746E0
1.081548783E1,-8.840615845E-1,-8.398435364E0,1.394949188E0,8.559273607E0
1.082549983E1,-1.288819885E0,-8.540639648E0,-1.386117554E-1,8.638448676E0
1.083551283E1,-1.494791565E0,-8.741372223E0,-1.971400452E0,9.084734994E0
1.084552483E1,-1.621577911E0,-8.836873627E0,-3.090323639E0,9.501049974E0
1.085553683E1,-1.756746826E0,-8.893905029E0,-2.725382538E0,9.466541927E0
1.086554883E1,-1.762884064E0,-9.014404449E0,-1.596280518E0,9.322840731E0
1.087556183E1,-1.628313904E0,-9.160500641E0,-4.180805969E-1,9.313483212E0
1.088557383E1,-1.409618683E0,-9.255552979E0,3.983216858E-1,9.370749486E0
1.089558583E1,-1.153052216E0,-9.209897919E0,6.773414612E-1,9.306478418E0
1.090559783E1,-9.039701843E-1,-9.073082428E0,4.725672913E-1,9.130241327E0
1.091560983E1,-5.945635986E-1,-8.969797211E0,-8.771759033E-2,8.989908912E0
1.092562283E1,2.993774414E-4,-8.940907288E0,-8.464897156E-1,8.980889046E0
1.093563483E1,7.671546936E-1,-9.104067993E0,-1.423390045E0,9.246546359E0
1.094564683E1,1.330133972E0,-9.469158783E0,-1.434916077E0,9.669188621E0
1.095565883E1,1.603914642E0,-9.852361908E0,-8.223898315E-1,1.001588251E1
1.096567183E1,1.782343597E0,-1.020413040E1,1.398092651E-1,1.035956430E1
1.097568383E1,1.926793213E0,-1.055155792E1,1.031055908E0,1.077548064E1
1.098569583E1,2.060764618E0,-1.090212891E1,1.512454834E0,1.119779823E1
1.099570783E1,2.232756958E0,-1.127754822E1,1.461560669E0,1.158897998E1
1.100572083E1,2.449655914E0,-1.159533737E1,8.893006897E-1,1.188459165E1
1.101573283E1,2.711760864E0,-1.182121765E1,-3.278182983E-2,1.212831020E1
1.102574483E1,2.931952972E0,-1.190294769E1,-8.752299500E-1,1.228993651E1
1.103575683E1,3.082539825E0,-1.186402863E1,-1.134939880E0,1.231037431E1
1.104576883E1,3.181334381E0,-1.171868088E1,-6.884184265E-1,1.216233078E1
1.105578183E1,3.288361816E0,-1.148711243E1,1.032852173E-1,1.194896410E1
1.106579383E1,3.403472443E0,-1.118923187E1,7.179071045E-1,1.171741973E1
1.107580596E1,3.520678711E0,-1.090991272E1,9.291178894E-1,1.150150574E1
1.108581796E1,3.639681244E0,-1.082444046E1,8.072712708E-1,1.144847054E1
1.109583096E1,3.713926849E0,-1.111753098E1,4.682263184E-1,1.173081342E1
1.110584296E1,3.617227936E0,-1.187181244E1,4.736151123E-1,1.241968517E1
1.111585496E1,3.277883606E0,-1.269734573E1,1.030606842E0,1.315405869E1
1.112586696E1,2.744991760E0,-1.310015808E1,1.629511414E0,1.348348727E1
1.113587996E1,1.963616638E0,-1.298878967E1,1.964365082E0,1.328243869E1
1.114589196E1,1.025517426E0,-1.247909958E1,2.018702087E0,1.268285340E1
1.115590396E1,4.737648010E-1,-1.173364975E1,1.816173248E0,1.188282268E1
1.116591596E1,3.231779480E-1,-1.097263229E1,1.476679230E0,1.107626674E1
1.117592796E1,1.371148682E-1,-1.033331177E1,1.213526459E0,1.040522845E1
1.118594096E1,-1.555265808E-1,-9.786049805E0,1.052910461E0,9.843758415E0
1.119595296E1,-5.132826233E-1,-9.312584381E0,9.138496399E-1,9.371382399E0
1.120596496E1,-8.461903381E-1,-9.070537720E0,8.143066406E-1,9.146244471E0
1.121597696E1,-1.166224823E0,-9.181906128E0,7.749385071E-1,9.288057395E0
1.122598996E1,-1.506916351E0,-9.771829376E0,8.634045410E-1,9.924964164E0
1.123600196E1,-1.896855469E0,-1.062056442E1,8.910969543E-1,1.082536388E1
1.124601396E1,-2.332599335E0,-1.137768997E1,7.544311523E-1,1.163881502E1
1.125602596E1,-2.817890167E0,-1.205697739E1,5.007087708E-1,1.239201025E1
1.126603896E1,-3.397335205E0,-1.262953674E1,3.237767029E-1,1.308250420E1
1.127605096E1,-4.019291840E0,-1.304088135E1,2.631527710E-1,1.364875608E1
1.128606296E1,-4.530628510E0,-1.316527267E1,1.278341675E-1,1.392362528E1
1.129607496E1,-4.810396729E0,-1.301094360E1,-1.112187195E-1,1.387216421E1
1.130608796E1,-4.790637817E0,-1.267010239E1,-3.387455750E-1,1.354977689E1
1.131609996E1,-4.342020721E0,-1.212194229E1,-5.177732849E-1,1.288653243E1
1.132611196E1,-3.461701355E0,-1.137948624E1,-5.438191223E-1,1.190679732E1
1.133612396E1,-2.542612610E0,-1.069406158E1,-3.173400879E-1,1.099675119E1
1.134613596E1,-1.895059204E0,-1.032013916E1,2.025288391E-1,1.049464338E1
1.135614896E1,-1.416354675E0,-1.011027557E1,6.673123169E-1,1.023078875E1
1.136616096E1,-9.768685913E-1,-9.945917358E0,9.913883972E-1,1.004282805E1
1.137617296E1,-5.707630920E-1,-1.002315674E1,1.202150116E0,1.011111302E1
1.138618496E1,-1.431024170E-1,-1.017179764E1,1.203946381E0,1.024379970E1
1.139619796E1,3.112028503E-1,-1.045830185E1,6.092330933E-1,1.048065312E1
1.140620996E1,8.318202209E-1,-1.099448685E1,-6.150709534E-1,1.104305113E1
1.141622196E1,1.373843079E0,-1.154174881E1,-1.960323486E0,1.178737793E1
1.142623396E1,1.844913483E0,-1.171793243E1,-2.627037048E0,1.214969012E1
1.143624696E1,2.206112366E0,-1.131976044E1,-2.448009338E0,1.178968438E1
1.144625896E1,2.457439728E0,-1.058703415E1,-2.004631348E0,1.105182559E1
1.145627096E1,2.535726929E0,-9.676926727E0,-1.493144989E0,1.011446014E1
1.146628296E1,2.530188446E0,-8.820258179E0,-1.155596924E0,9.248470801E0
1.147629596E1,2.383942566E0,-7.965685272E0,-1.030307465E0,8.378356491E0
1.148630796E1,2.104473724E0,-7.073241119E0,-9.839039612E-1,7.444972572E0
1.149631996E1,1.796114960E0,-6.177503815E0,-9.481283569E-1,6.502809371E0
1.150633196E1,1.470541992E0,-5.282964020E0,-8.490344238E-1,5.549149668E0
1.151634396E1,1.103355560E0,-4.466412048E0,-6.411167908E-1,4.645133025E0
1.152635696E1,7.286846924E-1,-3.715723114E0,-3.999682617E-1,3.807565397E0
1.153636896E1,4.227209473E-1,-3.065325623E0,-2.044747925E-1,3.101084345E0
1.154638096E1,2.966830444E-1,-2.493814087E0,-9.505233765E-2,2.513198057E0
1.155639296E1,2.106120300E-1,-2.034868469E0,-1.550775146E-1,2.051608186E0
1.156640596E1,6.960525513E-2,-1.707050171E0,-4.314028931E-1,1.762093537E0
1.157641796E1,-1.995350647E-1,-1.542093201E0,-8.375083923E-1,1.766150047E0
1.158642996E1,-5.478607178E-1,-1.531465302E0,-1.352736969E0,2.115522310E0
1.159644196E1,-9.303153992E-1,-1.696871338E0,-1.965861969E0,2.758527209E0
1.160645496E1,-1.424288177E0,-2.164648590E0,-2.711760864E0,3.750726238E0
1.161646696E1,-1.970202942E0,-3.202290802E0,-3.607198792E0,5.210398174E0
1.162647896E1,-2.466570740E0,-5.118456116E0,-4.820126495E0,7.450918309E0
1.163649096E1,-2.473306732E0,-8.446186066E0,-6.630461884E0,1.101899859E1
1.164650296E1,-1.676064606E0,-1.324415863E1,-8.986562347E0,1.609270745E1
1.165651596E1,-8.077203369E-1,-1.838626556E1,-9.959688721E0,2.092612178E1
1.166652796E1,-3.802093506E-2,-2.204361008E1,-9.433383179E0,2.397729987E1
1.167653996E1,1.032103729E0,-2.341895004E1,-9.402547302E0,2.525708524E1
1.168655196E1,2.748584290E0,-2.136806488E1,-8.959618378E0,2.333288824E1
1.169656496E1,4.434228973E0,-1.677456711E1,-7.702532501E0,1.898361123E1
1.170657696E1,4.889881439E0,-1.188483536E1,-6.207291870E0,1.427202594E1
1.171658896E1,4.574636993E0,-8.155191193E0,-4.862189026E0,1.053922811E1
1.172660096E1,4.308490448E0,-5.614225159E0,-3.787424011E0,8.026655263E0
1.173661396E1,4.240232391E0,-4.164639587E0,-2.637664948E0,6.502389561E0
1.174662596E1,4.471052399E0,-4.254752197E0,-1.312021637E0,6.309883247E0
1.175663796E1,4.788542175E0,-6.199208679E0,7.105723572E-1,7.865445791E0
1.176664996E1,4.458927612E0,-9.126521301E0,3.560346222E0,1.076343308E1
1.177666296E1,3.780538330E0,-1.201132233E1,5.834117889E0,1.387808581E1
1.178667496E1,2.968776398E0,-1.419393356E1,6.618486786E0,1.594006746E1
1.179668696E1,1.963916016E0,-1.527393768E1,6.023923187E0,1.653595443E1
1.180669896E1,7.267387390E-1,-1.506886414E1,4.870870972E0,1.585320786E1
1.181671196E1,-2.008822632E-1,-1.380249756E1,1.325942688E0,1.386749496E1
1.182672396E1,-6.319857788E-1,-1.251816833E1,-5.137466583E0,1.354612518E1
1.183673596E1,-1.052311707E0,-1.002390518E1,-4.980143738E0,1.124223584E1
1.184674796E1,-1.691781921E0,-7.702083435E0,-5.289250946E0,9.495282559E0
1.185675996E1,-2.392175446E0,-6.941215668E0,-6.152056732E0,9.578662764E0
1.186677296E1,-2.211650848E0,-6.960076447E0,-4.500391388E0,8.578320713E0
1.187678496E1,-1.597777405E0,-6.962471466E0,-1.781445465E0,7.362231285E0
1.188679696E1,-1.482367401E0,-7.047494659E0,4.177812195E-1,7.213815581E0
1.189680896E1,-1.695823517E0,-7.483388214E0,2.142494659E0,7.966630400E0
1.190682196E1,-1.745071106E0,-8.215366058E0,3.267405396E0,9.011850568E0
1.191683396E1,-1.607357483E0,-8.819360046E0,3.704047394E0,9.699725604E0
1.192684596E1,-1.628463593E0,-9.284293213E0,3.611988831E0,1.009437752E1
1.193685796E1,-1.637594604E0,-9.677226105E0,3.436403961E0,1.039900444E1
1.194687096E1,-1.590891724E0,-9.936786346E0,3.330723724E0,1.060020660E1
1.195688296E1,-1.492995300E0,-1.004561005E1,2.958597565E0,1.057811967E1
1.196689496E1,-1.348545685E0,-9.986033936E0,2.298320618E0,1.033545968E1
1.197690696E1,-1.171164551E0,-9.688452759E0,1.633702698E0,9.894782856E0
1.198691996E1,-9.360035706E-1,-9.301657104E0,9.566606140E-1,9.397453224E0
1.199693196E1,-2.667453003E-1,-8.862320709E0,-1.873803406E0,9.062175269E0
1.200694396E1,1.032403107E0,-8.258177032E0,-5.423671417E0,9.933758388E0
1.201695596E1,1.527274017E0,-8.071814575E0,-5.072651367E0,9.654975316E0
1.202696896E1,1.487606506E0,-8.447383575E0,-3.666325836E0,9.328087024E0
1.203698096E1,1.344803467E0,-9.132359161E0,-1.971101074E0,9.438946957E0
1.204699296E1,1.133293304E0,-9.911339264E0,8.277786255E-2,9.976264426E0
1.205700496E1,8.967851257E-1,-1.053943314E1,2.041005707E0,1.077263100E1
1.206701696E1,7.547305298E-1,-1.090557175E1,3.513044586E0,1.148227310E1
1.207703046E1,7.391629028E-1,-1.084764221E1,4.225113831E0,1.166487421E1
1.208704246E1,8.289761353E-1,-1.023990601E1,4.181704102E0,1.109186754E1
1.209705446E1,9.095086670E-1,-9.334738312E0,3.260070648E0,9.929380947E0
1.210706646E1,8.241860962E-1,-8.532257080E0,1.712139587E0,8.741287981E0
1.211707946E1,4.559518433E-1,-8.034542084E0,-3.287164307E-1,8.054179851E0
1.212709146E1,-2.260299683E-1,-7.906857605E0,-2.441572723E0,8.278330997E0
1.213710346E1,-8.849597168E-1,-8.122559052E0,-3.433410187E0,8.862698503E0
1.214711546E1,-1.091230774E0,-8.413853302E0,-3.003653870E0,9.000313803E0
1.215712846E1,-9.879455566E-1,-8.558452606E0,-2.075134735E0,8.861677697E0
1.216714046E1,-7.607180786E-1,-8.662336578E0,-1.114133148E0,8.766758789E0
1.217715246E1,-4.360432434E-1,-8.765472107E0,-3.031196594E-1,8.781544084E0
1.218716446E1,-5.733078003E-2,-8.890162811E0,1.833686829E-1,8.892238509E0
1.219717746E1,3.552113342E-1,-9.235195312E0,3.198847961E-1,9.247558263E0
1.220718946E1,7.231462097E-1,-9.792785797E0,2.165995789E-1,9.821838396E0
1.221720146E1,1.030307465E0,-1.027762756E1,-7.484436035E-3,1.032914410E1
1.222721346E1,1.296603699E0,-1.058898010E1,-3.170407104E-1,1.067277825E1
1.223722546E1,1.580712891E0,-1.071980804E1,-5.646258545E-1,1.085042580E1
1.224723846E1,1.855242004E0,-1.069301376E1,-6.418652344E-1,1.087172743E1
1.225725046E1,2.076481934E0,-1.053494247E1,-5.569917297E-1,1.075207096E1
1.226726246E1,2.181114349E0,-1.036324951E1,-3.766168213E-1,1.059698261E1
1.227727446E1,2.195035400E0,-1.030337402E1,-1.930984497E-1,1.053636482E1
1.228728746E1,2.147584076E0,-1.035816010E1,-7.065307617E-2,1.057868564E1
1.229729946E1,2.021396484E0,-1.050829788E1,-2.694396973E-3,1.070095208E1
1.230731146E1,1.835932159E0,-1.071352112E1,-2.993774414E-4,1.086969097E1
1.231732346E1,1.648671570E0,-1.085183350E1,4.790039062E-3,1.097635783E1
1.232733646E1,1.603465576E0,-1.087219116E1,1.908531189E-1,1.099145429E1
1.233734846E1,1.779499512E0,-1.102382584E1,5.284011841E-1,1.117902332E1
1.234736046E1,2.214345245E0,-1.165566193E1,6.668632507E-1,1.188286524E1
1.235737246E1,2.567161560E0,-1.269704636E1,8.794212341E-1,1.298378552E1
1.236738546E1,2.683619385E0,-1.361134506E1,1.561852112E0,1.396101391E1
1.237739746E1,2.734363861E0,-1.417597092E1,1.992057495E0,1.457405881E1
1.238740946E1,2.763553162E0,-1.421234528E1,1.997595978E0,1.461568931E1
1.239742146E1,2.656825104E0,-1.352901627E1,1.769769745E0,1.390054264E1
1.240743446E1,2.329006805E0,-1.244437180E1,1.514400787E0,1.275068907E1
1.241744646E1,1.733994141E0,-1.162617325E1,1.044976959E0,1.180112778E1
1.242745846E1,1.127156067E0,-1.126108246E1,1.022373962E0,1.136343731E1
1.243747046E1,7.949967957E-1,-1.096155533E1,1.448537750E0,1.108539475E1
1.244748346E1,6.150709534E-1,-1.050635193E1,1.752854919E0,1.066931317E1
1.245749546E1,3.234773254E-1,-1.012060410E1,1.580263824E0,1.024834126E1
1.246750746E1,-1.299298096E-1,-1.007929001E1,1.010249176E0,1.013062546E1
1.247751946E1,-6.605763245E-1,-1.051338730E1,4.055067444E-1,1.054192152E1
1.248753146E1,-1.163380737E0,-1.120375168E1,-9.160949707E-2,1.126436411E1
1.249754446E1,-1.592538300E0,-1.190639053E1,-5.011578369E-1,1.202287291E1
1.250755646E1,-2.056273956E0,-1.241772720E1,-7.855664063E-1,1.261131738E1
1.251756846E1,-2.780467987E0,-1.296424072E1,-9.252259827E-1,1.329129726E1
1.252758046E1,-3.778143311E0,-1.367556152E1,-8.062234497E-1,1.421074756E1
1.253759346E1,-4.691244507E0,-1.411040726E1,-4.810995483E-1,1.487759472E1
1.254760546E1,-5.544470215E0,-1.400562515E1,-3.573069763E-1,1.506739374E1
1.255761746E1,-6.078709259E0,-1.338756042E1,-2.761756897E-1,1.470556879E1
1.256762946E1,-6.036946106E0,-1.217463272E1,-3.206332397E-1,1.359298370E1
1.257764246E1,-5.377866669E0,-1.067789520E1,-3.354524231E-1,1.196041070E1
1.258765446E1,-4.204307098E0,-9.459429016E0,-4.489164734E-1,1.036139573E1
1.259766646E1,-2.868934021E0,-8.716224518E0,-5.143304443E-1,9.190641331E0
1.260767846E1,-1.620679779E0,-8.511600037E0,-5.822891235E-1,8.684065796E0
1.261769146E1,-5.884263611E-1,-8.670419769E0,-5.536985779E-1,8.707985225E0
1.262770346E1,2.746788025E-1,-8.918154602E0,-3.764671326E-1,8.930322360E0
1.263771546E1,9.566606140E-1,-9.087901611E0,-1.359173584E-1,9.139126258E0
1.264772746E1,1.422940979E0,-9.155261536E0,-2.080673218E-2,9.265204139E0
1.265774046E1,1.749561768E0,-9.128916321E0,-1.007405090E-1,9.295602628E0
1.266775246E1,2.010768585E0,-8.958271179E0,-3.592529297E-1,9.188192178E0
1.267776446E1,2.218087463E0,-8.596323853E0,-7.128176880E-1,8.906447374E0
1.268777646E1,2.373164978E0,-8.014483795E0,-1.083596649E0,8.428406980E0
1.269778946E1,2.444416809E0,-7.246580658E0,-1.298399963E0,7.757186812E0
1.270780146E1,2.432292023E0,-6.393205261E0,-1.367556152E0,6.975623831E0
1.271781346E1,2.288590851E0,-5.502557373E0,-1.335373077E0,6.107291297E0
1.272782546E1,2.003583527E0,-4.611610107E0,-1.269210663E0,5.185768066E0
1.273783746E1,1.628313904E0,-3.786376190E0,-1.273401947E0,4.313884948E0
1.274785046E1,1.185983734E0,-3.125500488E0,-1.340013428E0,3.601520055E0
1.275786246E1,6.999444580E-1,-2.689457245E0,-1.570683746E0,3.192201426E0
1.276787446E1,2.007325745E-1,-2.569107513E0,-2.024390259E0,3.277005173E0
1.277788646E1,-2.691403198E-1,-2.860401764E0,-2.676584015E0,3.926631731E0
1.278789946E1,-6.719526672E-1,-3.871998138E0,-3.390599213E0,5.190380814E0
1.279791146E1,-9.113049316E-1,-5.821993103E0,-4.269870758E0,7.277216271E0
1.280792346E1,-8.184979248E-1,-8.499325562E0,-5.419629822E0,1.011340008E1
1.281793546E1,-3.727249146E-1,-1.131736542E1,-6.450086975E0,1.303170387E1
1.282794846E1,4.351451111E-1,-1.370190674E1,-6.755601654E0,1.528298902E1
1.283796046E1,1.317111053E0,-1.502320908E1,-6.189628601E0,1.630162859E1
1.284797246E1,1.981279907E0,-1.498803223E1,-5.401517487E0,1.605437546E1
1.285798446E1,2.309696960E0,-1.372780289E1,-4.687053223E0,1.468862621E1
1.286799746E1,2.408341827E0,-1.170775360E1,-4.031416626E0,1.261443319E1
1.287800946E1,2.357447662E0,-9.577832794E0,-3.407214661E0,1.043559065E1
1.288802146E1,2.158661041E0,-7.937244415E0,-2.838547211E0,8.701552543E0
1.289803346E1,1.865420837E0,-6.875053253E0,-2.317780151E0,7.491211982E0
1.290804646E1,1.528172150E0,-6.296656036E0,-1.909878387E0,6.755059053E0
1.291805846E1,1.279988251E0,-6.143374786E0,-1.676214294E0,6.495315085E0
1.292807046E1,1.173260193E0,-6.428681488E0,-1.672172699E0,6.745416717E0
1.293808246E1,1.302591248E0,-7.389383698E0,-1.826052704E0,7.722318555E0
1.294809546E1,1.506616974E0,-9.522897034E0,-1.904938660E0,9.827728828E0
1.295810746E1,1.366957397E0,-1.247745300E1,-1.641636200E0,1.265900373E1
1.296811946E1,1.113534393E0,-1.507829453E1,-1.281036072E0,1.517352886E1
1.297813146E1,9.060658264E-1,-1.707139984E1,-1.090033264E0,1.713014362E1
1.298814446E1,7.833210754E-1,-1.823448120E1,-1.386117554E0,1.830385802E1
1.299815646E1,9.927355957E-1,-1.832025284E1,-1.827699280E0,1.843794112E1
1.300816846E1,1.323397980E0,-1.626472733E1,-1.508263550E0,1.638803210E1
1.301818046E1,1.322200470E0,-1.269465134E1,-6.430627441E-1,1.277951158E1
1.302819246E1,1.122066650E0,-1.005668701E1,3.682342529E-2,1.011915724E1
1.303820546E1,8.702902222E-1,-8.244106293E0,2.718347168E-1,8.294370847E0
1.304821746E1,5.936654663E-1,-6.840624847E0,6.586303711E-2,6.866653110E0
1.305822946E1,2.906954956E-1,-5.859265594E0,-2.167492676E-1,5.870475059E0
1.306824146E1,-1.856140137E-2,-5.162763977E0,-2.933898926E-1,5.171126960E0
1.307825421E1,-3.921844482E-1,-4.859794006E0,-4.071533203E-2,4.875762931E0
1.308826621E1,-7.517367554E-1,-4.850962372E0,4.043092346E-1,4.925485767E0
1.309827821E1,-1.004710693E0,-5.113965454E0,9.280700684E-1,5.293713280E0
1.310829021E1,-1.165775757E0,-5.618566132E0,1.402733002E0,5.907197167E0
1.311830321E1,-1.372046814E0,-6.320606232E0,1.620530090E0,6.667735250E0
1.312831521E1,-1.682052155E0,-7.328161011E0,1.614841919E0,7.690185802E0
1.313832721E1,-2.111658783E0,-8.515491943E0,1.532513123E0,8.906250744E0
1.314833921E1,-2.623893585E0,-9.738149414E0,1.386416931E0,1.018030076E1
1.315835221E1,-3.279679871E0,-1.091919342E1,1.166823578E0,1.146065279E1
1.316836421E1,-4.190835114E0,-1.215367630E1,3.622467041E-1,1.286103298E1
1.317837621E1,-5.123096466E0,-1.344698685E1,-1.142274628E0,1.443510873E1
1.318838821E1,-5.199587402E0,-1.409977936E1,-2.170935516E0,1.518395364E1
1.319840121E1,-4.049379272E0,-1.335358109E1,-2.315385132E0,1.414484389E1
1.320841321E1,-2.683918762E0,-1.198617462E1,-1.818717957E0,1.241690529E1
1.321842521E1,-1.849703522E0,-1.090317673E1,-9.229806519E-1,1.109741227E1
1.322843721E1,-1.371148682E0,-1.015907410E1,1.466949463E-1,1.025223657E1
1.323845021E1,-9.895921326E-1,-9.667496338E0,1.244362335E0,9.797357585E0
1.324846221E1,-5.740562439E-1,-9.270372162E0,2.120041351E0,9.527009810E0
1.325847421E1,-1.101708984E-1,-8.868757324E0,2.592908020E0,9.240679959E0
1.326848621E1,3.638932800E-1,-8.460406494E0,2.682421875E0,8.882920887E0
1.327849921E1,8.393046570E-1,-8.199948120E0,2.572250977E0,8.634816533E0
1.328851121E1,1.217268677E0,-8.159083099E0,2.312241669E0,8.567312390E0
1.329852321E1,1.578018494E0,-8.367449799E0,1.485510864E0,8.643558354E0
1.330853521E1,2.345622253E0,-8.752149811E0,-1.308578796E0,9.155023131E0
1.331854721E1,3.032843170E0,-9.438322906E0,-3.905229034E0,1.065508755E1
1.332856021E1,3.007545776E0,-1.030906219E1,-4.199816437E0,1.153085223E1
1.333857221E1,2.357297974E0,-1.092682755E1,-3.115471344E0,1.160424817E1
1.334858421E1,1.411864014E0,-1.101289856E1,-1.522483978E0,1.120692876E1
1.335859621E1,6.156697083E-1,-1.076082275E1,3.817062378E-2,1.077848842E1
1.336860921E1,1.377136230E-1,-1.045455963E1,1.242865448E0,1.052907862E1
1.337862121E1,-3.218307495E-2,-1.022448807E1,1.954635315E0,1.040969698E1
1.338863321E1,-5.104385376E-2,-1.004650818E1,2.079775085E0,1.025964894E1
1.339864521E1,-6.286926270E-2,-9.857601013E0,1.686093750E0,1.000095807E1
1.340865821E1,-1.574725342E-1,-9.790839844E0,1.004860382E0,9.843530202E0
1.341867021E1,-2.815644836E-1,-9.858948212E0,2.830613708E-1,9.867029043E0
1.342868221E1,-3.538641357E-1,-1.001043320E1,-3.144960022E-1,1.002162164E1
1.343869421E1,-3.206332397E-1,-1.021041733E1,-7.457492065E-1,1.024263489E1
1.344870721E1,-1.228944397E-1,-1.037911652E1,-9.542655945E-1,1.042361672E1
1.345871921E1,2.180964661E-1,-1.047087570E1,-9.015751648E-1,1.051188098E1
1.346873121E1,5.153782654E-1,-1.056517960E1,-4.773573303E-1,1.058850814E1
1.347874321E1,5.843847656E-1,-1.076351715E1,2.427951050E-1,1.078210353E1
1.348875621E1,4.278103638E-1,-1.104597977E1,1.043031006E0,1.110336005E1
1.349876821E1,1.841171265E-1,-1.136900803E1,1.779499512E0,1.150890356E1
1.350878021E1,-9.340576172E-2,-1.155552017E1,2.354304199E0,1.179328281E1
1.351879221E1,-3.538641357E-1,-1.134206406E1,2.547702026E0,1.163006546E1
1.352880521E1,-5.757028198E-1,-1.061457687E1,2.212998047E0,1.085808622E1
1.353881721E1,-7.309300232E-1,-9.721983032E0,1.493144989E0,9.863097624E0
1.354882921E1,-9.518705750E-1,-9.087302856E0,7.473957825E-1,9.167536815E0
1.355884121E1,-1.276994476E0,-8.856033783E0,1.944456482E-1,8.949740687E0
1.356885421E1,-1.651066589E0,-8.941955109E0,-8.352630615E-2,9.093489907E0
1.357886621E1,-2.025887146E0,-9.128317566E0,-1.541793823E-1,9.351693515E0
1.358887821E1,-2.350262604E0,-9.269474030E0,-2.023791504E-1,9.564927622E0
1.359889021E1,-2.628833313E0,-9.374405823E0,-2.945874023E-1,9.740484118E0
1.360890321E1,-2.943029938E0,-9.453291779E0,-4.968168640E-1,9.913272803E0
1.361891521E1,-3.203488312E0,-9.553283844E0,-7.786807251E-1,1.010613246E1
1.362892721E1,-3.294349365E0,-9.708211670E0,-9.475296021E-1,1.029562645E1
1.363893921E1,-3.031645660E0,-9.854457550E0,-9.072633362E-1,1.035008868E1
1.364895221E1,-2.270927582E0,-9.889784088E0,-7.774832153E-1,1.017690629E1
1.365896421E1,-1.319655762E0,-9.839189301E0,-6.083349609E-1,9.945914178E0
1.366897621E1,-5.728587341E-1,-9.825867004E0,-3.520678711E-1,9.848846699E0
1.367898821E1,-5.508544922E-2,-9.787397003E0,-6.421646118E-2,9.787762679E0
1.368900021E1,3.614982605E-1,-9.777667236E0,1.080752563E-1,9.784944447E0
1.369901321E1,5.146298218E-1,-9.829160156E0,4.311035156E-2,9.842717701E0
1.370902521E1,2.728825378E-1,-9.940378876E0,-2.954855347E-1,9.948512893E0
1.371903721E1,3.607498169E-2,-1.004291565E1,-6.494993591E-1,1.006396073E1
1.372904921E1,-8.232879639E-2,-1.016835480E1,-9.171427917E-1,1.020996416E1
1.373906221E1,-1.727407837E-1,-1.025712021E1,-1.037342834E0,1.031088912E1
1.374907421E1,-2.945874023E-1,-1.029319519E1,-1.146316223E0,1.036101780E1
1.375908621E1,-4.893324280E-1,-1.027583130E1,-1.306632843E0,1.037012268E1
1.376909821E1,-6.990463257E-1,-1.018332367E1,-1.537452850E0,1.032242743E1
1.377911121E1,-8.770262146E-1,-1.000145187E1,-1.796713715E0,1.019933305E1
1.378912321E1,-9.186396790E-1,-9.768835602E0,-2.038311310E0,1.002141511E1
1.379913521E1,-8.164022827E-1,-9.519603882E0,-2.154170380E0,9.794376998E0
1.380914721E1,-6.412664795E-1,-9.253756714E0,-2.166744232E0,9.525650455E0
1.381916021E1,-5.465135193E-1,-9.020990753E0,-2.144739990E0,9.288533836E0
1.382917221E1,-5.105882263E-1,-8.850495300E0,-2.092498627E0,9.108815395E0
1.383918421E1,-5.635780334E-1,-8.735384674E0,-2.061662750E0,8.993053925E0
1.384919621E1,-7.150630188E-1,-8.671018524E0,-2.109712830E0,8.952584297E0
1.385920921E1,-9.446855164E-1,-8.686586151E0,-2.207160187E0,9.012256420E0
1.386922121E1,-1.262774048E0,-8.705147552E0,-2.239942017E0,9.076978156E0
1.387923321E1,-1.641935577E0,-8.657396851E0,-2.147883453E0,9.069723039E0
1.388924521E1,-1.997745667E0,-8.535849609E0,-1.920655975E0,8.974443475E0
1.389925821E1,-2.259700928E0,-8.351433105E0,-1.624721375E0,8.802976925E0
1.390927021E1,-2.377955017E0,-8.148754578E0,-1.327738953E0,8.591842757E0
1.391928221E1,-2.326162720E0,-8.043074341E0,-1.109941864E0,8.445948661E0
1.392929421E1,-2.162552948E0,-8.047864380E0,-9.839039612E-1,8.391234911E0
1.393930721E1,-1.853146362E0,-8.172555084E0,-9.813592529E-1,8.437290681E0
1.394931921E1,-1.373244324E0,-8.484805756E0,-1.158890076E0,8.672989963E0
1.395933121E1,-7.587721252E-1,-8.910221100E0,-1.492246857E0,9.066122427E0
1.396934321E1,-4.565505981E-2,-9.305698700E0,-1.892364807E0,9.496270702E0
1.397935621E1,6.715036011E-1,-9.569599915E0,-2.227368164E0,9.848316026E0
1.398936821E1,1.284029846E0,-9.705068207E0,-2.508333893E0,1.010588049E1
1.399938021E1,1.724713440E0,-9.647587738E0,-2.744093628E0,1.017745722E1
1.400939221E1,2.124082947E0,-9.447902985E0,-2.940784607E0,1.012041567E1
1.401940521E1,2.494861908E0,-9.197024689E0,-3.106639709E0,1.002301399E1
1.402941721E1,2.823278961E0,-8.982670441E0,-3.186723175E0,9.940547114E0
1.403942921E1,3.121758270E0,-8.892108765E0,-3.168161774E0,9.942445474E0
1.404944121E1,3.376229095E0,-8.906927948E0,-3.000061340E0,9.986623875E0
1.405945421E1,3.573818207E0,-8.972790985E0,-2.814896393E0,1.006015886E1
1.406946621E1,3.727847900E0,-9.046437836E0,-2.699636078E0,1.015002081E1
1.407947838E1,3.827091522E0,-9.116791534E0,-2.717598724E0,1.025416307E1
1.408949038E1,3.842509460E0,-9.147777100E0,-2.864593048E0,1.032727448E1
1.409950338E1,3.743116150E0,-9.114097137E0,-3.057392120E0,1.031626540E1
1.410951538E1,3.549418945E0,-8.989556122E0,-3.235222321E0,1.019201440E1
1.411952738E1,3.262465668E0,-8.789721680E0,-3.375330963E0,9.964725212E0
1.412953938E1,2.933000793E0,-8.495433655E0,-3.427123260E0,9.618734869E0
1.413955138E1,2.590962067E0,-8.157436523E0,-3.426225128E0,9.219320674E0
1.414956437E1,2.294728088E0,-7.890391846E0,-3.413052521E0,8.897920431E0
1.415957638E1,2.000140686E0,-7.873776398E0,-3.333567810E0,8.781206743E0
1.416958838E1,1.654808807E0,-8.391699371E0,-3.167563019E0,9.120990407E0
1.417960038E1,1.136436768E0,-9.755513306E0,-3.144960022E0,1.031272524E1
1.418961337E1,1.434017944E-1,-1.183947968E1,-3.183579712E0,1.226087366E1
1.419962538E1,-1.285826111E0,-1.364098343E1,-2.929408264E0,1.401111025E1
1.420963737E1,-2.527643738E0,-1.433613785E1,-2.606080627E0,1.478869458E1
1.421964938E1,-3.526067505E0,-1.412238235E1,-2.608924713E0,1.478787759E1
1.422966238E1,-4.336033173E0,-1.282952087E1,-2.692001953E0,1.380741337E1
1.423967438E1,-4.781506805E0,-1.081905167E1,-2.398162994E0,1.206921174E1
1.424968637E1,-4.789440308E0,-8.923992462E0,-1.893861694E0,1.030354755E1
1.425969838E1,-4.514013062E0,-7.561974792E0,-1.155596924E0,8.882295927E0
1.426971138E1,-3.849993896E0,-6.878645782E0,-3.607498169E-2,7.882862564E0
1.427972338E1,-2.828817444E0,-6.802304535E0,1.222358093E0,7.467778413E0
1.428973538E1,-1.698817291E0,-7.181765442E0,2.409090271E0,7.763211384E0
1.429974738E1,-7.424560547E-1,-7.740852814E0,3.373983765E0,8.476780622E0
1.430976038E1,-2.326162720E-1,-8.401129761E0,4.141437836E0,9.369343570E0
1.431977238E1,1.242416382E-2,-9.199419708E0,4.598886566E0,1.028490326E1
1.432978438E1,3.528163147E-1,-1.011356873E1,4.646188202E0,1.113534088E1
1.433979638E1,8.087681580E-1,-1.099867813E1,4.393813019E0,1.187142028E1
1.434980938E1,1.371597748E0,-1.177750854E1,3.810775452E0,1.245443686E1
1.435982137E1,2.067201233E0,-1.231174759E1,2.447410583E0,1.272172426E1
1.436983338E1,3.069666595E0,-1.248882935E1,-5.822891235E-1,1.287372409E1
1.437984538E1,4.096231842E0,-1.222313187E1,-3.344794464E0,1.331809738E1
1.438985838E1,4.619842987E0,-1.160850998E1,-3.700454865E0,1.303049575E1
1.439987037E1,4.616549835E0,-1.082818268E1,-2.503394165E0,1.203449437E1
1.440988238E1,4.390669556E0,-9.900411987E0,-1.169368286E0,1.089328045E1
1.441989437E1,4.101920013E0,-8.922196198E0,-4.842430115E-1,9.831877953E0
1.442990738E1,3.615731049E0,-8.110583954E0,-5.580395508E-1,8.897555351E0
1.443991937E1,2.718496857E0,-7.860903168E0,-9.557624817E-1,8.372425317E0
1.444993138E1,1.517244873E0,-8.397836609E0,-1.265468445E0,8.627114355E0
1.445994337E1,4.733157349E-1,-9.298962708E0,-1.152902527E0,9.382106344E0
1.446995638E1,-3.442840576E-3,-9.903256073E0,-5.924679565E-1,9.920963208E0
1.447996838E1,6.556365967E-2,-1.003498215E1,1.627116394E-1,1.003651535E1
1.448998038E1,4.772076416E-1,-9.831405487E0,8.536747742E-1,9.879930243E0
1.449999238E1,8.988807678E-1,-9.491163025E0,1.199755096E0,9.608827946E0
1.451000538E1,1.054257660E0,-9.296867065E0,1.121168518E0,9.423386615E0
1.452001738E1,1.012344818E0,-9.251661072E0,8.896000671E-1,9.349302803E0
1.453002938E1,8.845106506E-1,-9.296867065E0,5.523513794E-1,9.355169072E0
1.454004138E1,7.725434875E-1,-9.386680298E0,1.420545959E-1,9.419488838E0
1.455005437E1,7.656578064E-1,-9.459578705E0,-2.764750671E-1,9.494540516E0
1.456006638E1,8.237370300E-1,-9.466464386E0,-5.677693176E-1,9.519183403E0
1.457007838E1,9.277706909E-1,-9.431287537E0,-6.283932495E-1,9.497621867E0
1.458009038E1,1.003213806E0,-9.406738586E0,-5.370831299E-1,9.475316726E0
1.459010337E1,1.048868866E0,-9.375154266E0,-3.366499329E-1,9.439649177E0
1.460011538E1,1.090182953E0,-9.346563721E0,-1.200503540E-1,9.410694148E0
1.461012737E1,1.087488556E0,-9.342073059E0,3.712280273E-2,9.405229317E0
1.462013938E1,1.020128632E0,-9.369017029E0,1.001417542E-1,9.424922858E0
1.463015238E1,9.166937256E-1,-9.419462128E0,9.954299927E-2,9.464486408E0
1.464016438E1,7.714956665E-1,-9.398356018E0,2.514770508E-2,9.430001793E0
1.465017637E1,6.333329773E-1,-9.339528351E0,-1.523831177E-1,9.362217744E0
1.466018838E1,5.123844910E-1,-9.256900177E0,-4.459226990E-1,9.281787856E0
1.467020138E1,4.101470947E-1,-9.232949982E0,-7.250921631E-1,9.270455471E0
1.468021338E1,3.159928894E-1,-9.308393097E0,-8.631051636E-1,9.353661533E0
1.469022538E1,2.951861572E-1,-9.434281311E0,-7.915539551E-1,9.472030215E0
1.470023738E1,3.974235535E-1,-9.575138397E0,-5.137316895E-1,9.597142338E0
1.471025038E1,6.489006042E-1,-9.683213654E0,-1.817221069E-1,9.706632865E0
1.472026238E1,1.057401123E0,-9.849218445E0,1.070274353E-1,9.906394701E0
1.473027438E1,1.574126587E0,-1.022882904E1,2.926414490E-1,1.035337902E1
1.474028638E1,2.110012207E0,-1.072085587E1,2.242337036E-1,1.092882348E1
1.475029938E1,2.627336426E0,-1.112112350E1,-2.559677124E-2,1.142728926E1
1.476031137E1,3.131338348E0,-1.144774429E1,-1.580712891E-1,1.186933510E1
1.477032338E1,3.509751434E0,-1.169682632E1,-3.038681030E-2,1.221208518E1
1.478033538E1,3.699107666E0,-1.188573349E1,3.421884155E-1,1.245275676E1
1.479034738E1,3.792812805E0,-1.213975525E1,8.123606873E-1,1.274437195E1
1.480036037E1,3.880829773E0,-1.256187744E1,1.085093536E0,1.319238540E1
1.481037238E1,3.871249695E0,-1.311138474E1,1.277892609E0,1.373054964E1
1.482038437E1,3.764371948E0,-1.351554428E1,1.430724792E0,1.410274466E1
1.483039738E1,3.560495911E0,-1.350925735E1,1.397344208E0,1.404028975E1
1.484040937E1,2.923271027E0,-1.298908905E1,1.153052216E0,1.336381223E1
1.485042138E1,1.746118927E0,-1.234512817E1,9.559121704E-1,1.250459472E1
1.486043337E1,7.569758606E-1,-1.190369614E1,9.098080444E-1,1.196238876E1
1.487044638E1,4.306544495E-1,-1.154878418E1,9.521699524E-1,1.159596942E1
1.488045838E1,2.703378296E-1,-1.120210510E1,1.131946106E0,1.126239509E1
1.489047038E1,5.987548828E-4,-1.082578766E1,1.138083344E0,1.088544498E1
1.490048238E1,-3.471281433E-1,-1.038016434E1,1.083147583E0,1.044229469E1
1.491049438E1,-6.427633667E-1,-9.847122803E0,1.207838287E0,9.941722465E0
1.492050738E1,-8.780740356E-1,-9.191935272E0,1.444945221E0,9.346151869E0
1.493051938E1,-1.084045715E0,-8.643176422E0,1.586700439E0,8.854223402E0
1.494053138E1,-1.368603973E0,-8.404722290E0,1.452130280E0,8.638351461E0
1.495054338E1,-1.715732117E0,-8.529263306E0,1.241667938E0,8.788276765E0
1.496055638E1,-2.132166138E0,-9.029672699E0,1.063837738E0,9.338783230E0
1.497056838E1,-2.638563080E0,-9.711804199E0,8.345146179E-1,1.009839446E1
1.498058038E1,-3.313359833E0,-1.054796539E1,4.935237122E-1,1.106713572E1
1.499059238E1,-4.057462463E0,-1.153995255E1,1.350192261E-1,1.223322266E1
1.500060538E1,-4.738845520E0,-1.261052628E1,-2.353106689E-1,1.347358159E1
1.501061737E1,-5.285957794E0,-1.349683319E1,-6.207591248E-1,1.450831478E1
1.502062938E1,-5.576204224E0,-1.407957138E1,-1.117575989E0,1.518477395E1
1.503064137E1,-5.449118500E0,-1.418255722E1,-1.786085815E0,1.529797125E1
1.504065438E1,-4.750221863E0,-1.382001114E1,-2.336491241E0,1.479920629E1
1.505066637E1,-3.564238129E0,-1.292696823E1,-2.493814087E0,1.363925987E1
1.506067838E1,-2.362387390E0,-1.164548309E1,-2.253264313E0,1.209443470E1
1.507069037E1,-1.488055573E0,-1.042013123E1,-1.638792114E0,1.065265618E1
1.508070238E1,-8.352630615E-1,-9.603728943E0,-9.198371887E-1,9.683768608E0
1.509071437E1,-2.992277527E-1,-9.134155426E0,-2.862048340E-1,9.143535739E0
1.510072638E1,1.267863464E-1,-8.797505493E0,2.032772827E-1,8.800766974E0
1.511073838E1,4.909790039E-1,-8.488248596E0,4.924758911E-1,8.516686980E0
1.512075138E1,7.867639160E-1,-8.205785980E0,4.254153442E-1,8.254386666E0
1.513076337E1,9.939331055E-1,-8.148604889E0,-4.864883423E-2,8.209143156E0
1.514077538E1,1.214873657E0,-8.127947845E0,-6.613247681E-1,8.244804705E0
1.515078737E1,1.471589813E0,-8.096662903E0,-1.380579071E0,8.344310955E0
1.516080038E1,1.716330872E0,-7.969128113E0,-2.024390259E0,8.399461320E0
1.517081237E1,1.899849243E0,-7.720495148E0,-2.403252411E0,8.306087805E0
1.518082438E1,2.012564850E0,-7.321724396E0,-2.437531128E0,7.974937204E0
1.519083637E1,2.049537964E0,-6.760541382E0,-2.232008514E0,7.408602274E0
1.520084938E1,2.000140686E0,-6.105653229E0,-1.886676636E0,6.696201374E0
1.521086138E1,1.840422821E0,-5.432802429E0,-1.530567169E0,5.936761260E0
1.522087338E1,1.625320129E0,-4.815785522E0,-1.239272919E0,5.231563159E0
1.523088538E1,1.375339966E0,-4.275708618E0,-1.108444977E0,4.626218161E0
1.524089838E1,1.130000153E0,-3.832180939E0,-1.217118988E0,4.176588287E0
1.525091038E1,9.358538818E-1,-3.523073730E0,-1.556463318E0,3.963640884E0
1.526092238E1,7.809260559E-1,-3.462300110E0,-2.098037109E0,4.122999790E0
1.527093438E1,6.912625122E-1,-3.704496460E0,-2.875520325E0,4.740227317E0
1.528094737E1,7.722441101E-1,-4.169878693E0,-4.077969818E0,5.883373787E0
1.529095938E1,1.118923187E0,-4.962330780E0,-5.501359863E0,7.492774934E0
1.530097138E1,1.590292969E0,-6.167025604E0,-6.550079041E0,9.135905646E0
1.531098338E1,1.985471191E0,-7.765551453E0,-6.917265472E0,1.058746650E1
1.532099637E1,2.339485016E0,-9.559570770E0,-6.614295502E0,1.185780285E1
1.533100838E1,2.795736237E0,-1.137589371E1,-5.782924347E0,1.306404657E1
1.534102037E1,3.287613373E0,-1.289253983E1,-4.794080658E0,1.414246068E1
1.535103238E1,3.709885254E0,-1.362541580E1,-3.542533264E0,1.455900911E1
1.536104538E1,4.063899078E0,-1.338262070E1,-2.364483032E0,1.418451946E1
1.537105738E1,4.409081268E0,-1.222926910E1,-1.830842743E0,1.312809985E1
1.538106937E1,4.675078125E0,-1.068747528E1,-2.133812714E0,1.185882119E1
1.539108138E1,4.782105560E0,-9.097032623E0,-2.873274994E0,1.067146875E1
1.540109438E1,4.466112671E0,-7.404502258E0,-3.609294434E0,9.370155943E0
1.541110638E1,3.742068329E0,-6.030659180E0,-4.371659088E0,8.335666062E0
1.542111838E1,2.982248383E0,-5.997877350E0,-5.232069855E0,8.499581936E0
1.543113038E1,2.654729462E0,-7.968828735E0,-5.715115356E0,1.015934857E1
1.544114338E1,2.096839600E0,-1.164742905E1,-5.282215576E0,1.295998230E1
1.545115538E1,8.199948120E-1,-1.545880325E1,-3.831282806E0,1.594759284E1
1.546116738E1,-1.025367737E-1,-1.807401489E1,-1.548829193E0,1.814054575E1
1.547117938E1,-6.521937561E-1,-1.964739304E1,3.592529297E-2,1.965824764E1
1.548119238E1,-9.505233765E-1,-1.981175125E1,4.855902100E-1,1.984048337E1
1.549120437E1,-9.509724426E-1,-1.745430359E1,4.092489624E-1,1.748498061E1
1.550121638E1,-4.592449951E-1,-1.319565948E1,-1.570234680E-1,1.320458222E1
1.551122838E1,-2.098635864E-1,-9.735005951E0,-8.882528687E-1,9.777697927E0
1.552124138E1,-2.944377136E-1,-7.234605560E0,-1.803749084E0,7.461884610E0
1.553125337E1,-4.076023865E-1,-5.485193481E0,-2.407144318E0,6.003984594E0
1.554126538E1,-3.559597778E-1,-4.545597382E0,-2.179318085E0,5.053572027E0
1.555127737E1,-1.273851013E-1,-4.262685699E0,-1.336720276E0,4.469176371E0
1.556129038E1,9.729766846E-2,-4.459526367E0,-1.577719116E-1,4.463376999E0
1.557130237E1,2.177970886E-1,-5.055736542E0,1.330882416E0,5.232509489E0
1.558131438E1,2.848576355E-1,-5.873186646E0,2.634970551E0,6.443487801E0
1.559132637E1,3.448828125E-1,-6.816524963E0,3.543281708E0,7.690175680E0
1.560133938E1,4.005670166E-1,-7.702981567E0,4.153113556E0,8.760407021E0
1.561135138E1,4.249662781E-1,-8.590635681E0,4.319118347E0,9.624676672E0
1.562136338E1,5.385800171E-1,-9.636361084E0,4.043691101E0,1.046427069E1
1.563137538E1,6.674620056E-1,-1.047566574E1,3.510948944E0,1.106850671E1
1.564138838E1,7.565267944E-1,-1.105466171E1,2.717449036E0,1.140887407E1
1.565140038E1,1.047072601E0,-1.130658783E1,-8.337661743E-2,1.135527371E1
1.566141238E1,1.803599396E0,-1.088865692E1,-5.358257446E0,1.226893407E1
1.567142438E1,1.536854095E0,-9.867779846E0,-6.133345642E0,1.171976657E1
1.568143737E1,7.027885437E-1,-8.954678650E0,-4.062701569E0,9.858282076E0
1.569144938E1,-1.275347900E-1,-8.511150970E0,-1.689835968E0,8.678219954E0
1.570146138E1,-6.474037170E-1,-8.475824432E0,1.200503540E-1,8.501361272E0
1.571147338E1,-6.652166748E-1,-8.518635406E0,1.315165100E0,8.645190666E0
1.572148637E1,-5.390290833E-1,-8.530011749E0,1.844614105E0,8.743812326E0
1.573149838E1,-5.623805237E-1,-8.683292999E0,1.805695038E0,8.886865799E0
1.574151037E1,-8.568182373E-1,-9.064550171E0,1.426084442E0,9.215960293E0
1.575152238E1,-1.377285919E0,-9.529483337E0,8.231382751E-1,9.663618670E0
1.576153538E1,-1.899699554E0,-9.950258331E0,3.462300110E-1,1.013589535E1
1.577154738E1,-2.284549255E0,-1.023137375E1,2.612068176E-1,1.048658205E1
1.578155937E1,-2.467618561E0,-1.029319519E1,4.260140991E-1,1.059341761E1
1.579157238E1,-2.443818054E0,-1.008482849E1,5.014572144E-1,1.038881474E1
1.580158438E1,-2.130070496E0,-9.642198944E0,3.333567810E-1,9.880299972E0
1.581159638E1,-1.560654602E0,-9.192534027E0,-4.924758911E-2,9.324202376E0
1.582160838E1,-9.542655945E-1,-8.985065460E0,-5.724096680E-1,9.053710674E0
1.583162038E1,-3.969744873E-1,-9.015601959E0,-1.013542328E0,9.081075679E0
1.584163338E1,1.206491089E-1,-9.240584106E0,-1.216520233E0,9.321098235E0
1.585164538E1,5.903723145E-1,-9.479786682E0,-1.125958557E0,9.564657740E0
1.586165738E1,9.554631042E-1,-9.652078400E0,-7.798782349E-1,9.730556882E0
1.587167037E1,1.223405914E0,-9.787097626E0,-1.941462708E-1,9.865175860E0
1.588168238E1,1.412462769E0,-9.906549225E0,5.272036743E-1,1.002061437E1
1.589169437E1,1.630559235E0,-9.944719849E0,1.147214355E0,1.014259716E1
1.590170638E1,1.900597687E0,-9.904453583E0,1.486259308E0,1.019408844E1
1.591171937E1,2.185605011E0,-9.868079224E0,1.413510590E0,1.020558029E1
1.592173138E1,2.464924164E0,-9.896220703E0,1.010698242E0,1.024853874E1
1.593174337E1,2.709964600E0,-9.986333313E0,3.001258850E-1,1.035185185E1
1.594175538E1,2.898871765E0,-1.006521927E1,-5.827381897E-1,1.049055195E1
1.595176838E1,2.932402039E0,-1.002525238E1,-1.275647278E0,1.052292464E1
1.596178038E1,2.615660706E0,-9.822573853E0,-1.617835693E0,1.029281450E1
1.597179237E1,1.920057220E0,-9.582173767E0,-1.463207245E0,9.881581314E0
1.598180438E1,1.231788483E0,-9.436826019E0,-9.166937256E-1,9.560926502E0
1.599181738E1,9.202862549E-1,-9.361233215E0,-2.460882568E-1,9.409578818E0
1.600182938E1,1.078357544E0,-9.579030304E0,3.180885315E-1,9.644783920E0
1.601184138E1,1.409019928E0,-1.068852310E1,6.391708374E-1,1.079992605E1
1.602185338E1,1.890269165E0,-1.215517319E1,1.191821594E0,1.235887501E1
1.603186638E1,2.485581207E0,-1.324400894E1,2.014959869E0,1.362504863E1
1.604187838E1,2.929557953E0,-1.417731812E1,2.699187012E0,1.472631214E1
1.605189038E1,3.222199402E0,-1.495629822E1,2.768492889E0,1.554792521E1
1.606190238E1,3.492986298E0,-1.518128036E1,1.622625732E0,1.566222018E1
1.607191538E1,3.653153229E0,-1.459420120E1,-2.990780640E-1,1.504744779E1
1.608192771E1,3.227288818E0,-1.346674576E1,-1.277443542E0,1.390685070E1
1.609193971E1,1.900747375E0,-1.231384323E1,-7.520361328E-1,1.248235291E1
1.610195171E1,7.682025146E-1,-1.135688324E1,-2.106120300E-1,1.138478324E1
1.611196471E1,3.243754578E-1,-1.045515839E1,1.942959595E-1,1.046199346E1
1.612197671E1,1.630110168E-1,-9.571096802E0,7.132667542E-1,9.599021619E0
1.613198871E1,-7.963439941E-2,-8.833131409E0,9.464817810E-1,8.884051997E0
1.614200071E1,-4.418811035E-1,-8.299042053E0,7.053332520E-1,8.340674607E0
1.615201371E1,-9.315129089E-1,-7.849975891E0,1.953437805E-1,7.907464637E0
1.616202571E1,-1.484313354E0,-7.462880859E0,-3.496728516E-1,7.617089205E0
1.617203771E1,-2.032323761E0,-7.374265137E0,-6.909631348E-1,7.680335685E0
1.618204971E1,-2.645897827E0,-7.881709900E0,-9.098080444E-1,8.363604303E0
1.619206271E1,-3.319197693E0,-8.889114990E0,-1.212778015E0,9.565786384E0
1.620207471E1,-4.075125732E0,-1.006866211E1,-1.717079315E0,1.099695266E1
1.621208671E1,-4.815785522E0,-1.109612549E1,-2.139949951E0,1.228393979E1
1.622209871E1,-5.323679352E0,-1.180819473E1,-2.382445679E0,1.317008246E1
1.623211171E1,-5.652994537E0,-1.232566864E1,-2.745141449E0,1.383525411E1
1.624212371E1,-5.755381622E0,-1.276171188E1,-2.828368378E0,1.428234489E1
1.625213571E1,-5.440885620E0,-1.293026138E1,-2.613415375E0,1.426971744E1
1.626214771E1,-4.726271667E0,-1.287278091E1,-2.548151093E0,1.394773123E1
1.627216071E1,-3.726949768E0,-1.263223114E1,-2.549647980E0,1.341507074E1
1.628217271E1,-2.589165802E0,-1.219678665E1,-2.471660156E0,1.271119538E1
1.629218471E1,-1.410516815E0,-1.163919617E1,-2.379302216E0,1.196334084E1
1.630219671E1,-4.131408691E-1,-1.136496643E1,-1.937870178E0,1.153639841E1
1.631220971E1,3.318598938E-1,-1.120689514E1,-1.497186584E0,1.131133049E1
1.632222171E1,9.912387085E-1,-1.114716934E1,-1.169517975E0,1.125209806E1
1.633223371E1,1.596879272E0,-1.103819595E1,-9.196875000E-1,1.119096146E1
1.634224571E1,2.162253571E0,-1.072654404E1,-8.199948120E-1,1.097298861E1
1.635225871E1,2.663261719E0,-1.010817993E1,-8.890013123E-1,1.049088118E1
1.636227071E1,3.082539825E0,-9.155261536E0,-8.842112732E-1,9.700654366E0
1.637228271E1,3.389850769E0,-8.099506989E0,-7.647596741E-1,8.813510030E0
1.638229471E1,3.558100891E0,-7.137307892E0,-6.960525513E-1,8.005356647E0
1.639230771E1,3.657194824E0,-6.339167633E0,-8.894503784E-1,7.372329499E0
1.640231971E1,3.741170197E0,-5.706732788E0,-1.202449493E0,6.928855485E0
1.641233171E1,3.739673309E0,-5.184319153E0,-1.426982574E0,6.549702345E0
1.642234371E1,3.595074005E0,-4.655019836E0,-1.567091217E0,6.086833468E0
1.643235671E1,3.377127228E0,-4.117936707E0,-1.669178925E0,5.581088542E0
1.644236871E1,3.031196594E0,-3.517086182E0,-1.755998383E0,4.964028437E0
1.645238071E1,2.555934906E0,-2.912643127E0,-1.769170990E0,4.259842629E0
1.646239271E1,2.018402710E0,-2.391427002E0,-1.774559784E0,3.597490102E0
1.647240571E1,1.496587830E0,-1.970352631E0,-1.836530914E0,3.081381252E0
1.648241771E1,1.025667114E0,-1.686692505E0,-2.034718781E0,2.834961226E0
1.649242971E1,5.806425476E-1,-1.651216278E0,-2.420915680E0,2.987389110E0
