"Time (s)","Acceleration x (m/s^2)","Acceleration y (m/s^2)","Acceleration z (m/s^2)","Absolute acceleration (m/s^2)"
3.145750001E-3,-4.952301636E0,2.429447937E0,8.173453217E0,9.860671694E0
1.315774999E-2,-4.797673187E0,2.556234283E0,8.357570343E0,9.970004201E0
2.316975000E-2,-4.926405487E0,2.650687866E0,8.466094666E0,1.014743199E1
3.318174998E-2,-5.068609772E0,2.776127014E0,8.568781128E0,1.033545820E1
4.319375000E-2,-5.197192383E0,2.812052307E0,8.446485443E0,1.030832495E1
5.320674999E-2,-5.222340088E0,2.739902344E0,8.408314819E0,1.027032906E1
6.321875000E-2,-5.044060822E0,2.613565063E0,8.504414978E0,1.022733328E1
7.323074999E-2,-4.778213654E0,2.536175995E0,8.504265289E0,1.007899015E1
8.324275000E-2,-4.567751312E0,2.429447937E0,8.571325836E0,1.001170295E1
9.325574999E-2,-4.418811035E0,2.351160736E0,8.642128601E0,9.987003281E0
1.032677500E-1,-4.358037415E0,2.293530579E0,8.682394867E0,9.981821139E0
1.132797500E-1,-4.351600800E0,2.226919098E0,8.736432495E0,1.001103646E1
1.232917500E-1,-4.405788116E0,2.162103882E0,8.761729889E0,1.004258795E1
1.333047500E-1,-4.448449402E0,2.172731781E0,8.757688293E0,1.006014760E1
1.433167500E-1,-4.561314697E0,2.193538513E0,8.723110199E0,1.008513037E1
1.533287500E-1,-4.822371826E0,2.193538513E0,8.710835724E0,1.019536857E1
1.633407500E-1,-5.054688721E0,2.130968628E0,8.780291290E0,1.035299090E1
1.733527500E-1,-5.252277832E0,2.105371857E0,8.791667633E0,1.045525862E1
1.833657500E-1,-5.227429504E0,1.916614380E0,8.719966736E0,1.034588081E1
1.933777500E-1,-4.992118835E0,1.581311646E0,8.800199890E0,1.024037671E1
2.033897500E-1,-4.679568787E0,1.313069458E0,8.768316193E0,1.002526231E1
2.134017500E-1,-4.339775391E0,1.237776031E0,8.938063202E0,1.001272759E1
2.234147500E-1,-4.138593750E0,1.296603699E0,9.302106171E0,1.026344575E1
2.334267500E-1,-4.055965576E0,1.395098877E0,9.410031738E0,1.034146290E1
2.434387500E-1,-4.320016479E0,1.487157440E0,9.448202362E0,1.049488959E1
2.534507500E-1,-5.206024017E0,1.212179260E0,9.121431885E0,1.057225540E1
2.634627500E-1,-5.355263672E0,1.379381561E0,9.648036804E0,1.112052861E1
2.734757500E-1,-5.549110565E0,1.404379578E0,1.012314880E1,1.162940462E1
2.834877500E-1,-5.565426636E0,1.120569763E0,1.027927414E1,1.174279043E1
2.934997500E-1,-5.324577484E0,9.231303406E-1,1.031145721E1,1.164171142E1
3.035117500E-1,-5.047353973E0,6.753955078E-1,1.030861313E1,1.149780178E1
3.135247500E-1,-4.963228912E0,3.020718384E-1,1.019934036E1,1.134686884E1
3.235367500E-1,-4.980592804E0,-8.143066406E-2,1.013647110E1,1.129428980E1
3.335487500E-1,-5.296436005E0,-5.174739075E-1,1.023900787E1,1.153938022E1
3.435607500E-1,-4.758754120E0,-7.336244202E-1,9.412426758E0,1.057249843E1
3.535727500E-1,-3.882326660E0,-8.979826355E-1,9.017547913E0,9.858752632E0
3.635857500E-1,-3.414549408E0,-1.056802368E0,8.570876770E0,9.286329065E0
3.735977500E-1,-2.822680206E0,-1.098415833E0,7.915838928E0,8.475526345E0
3.836097500E-1,-2.482437744E0,-1.332678680E0,7.443121948E0,7.958554765E0
3.936217500E-1,-2.536625061E0,-1.676064606E0,7.060966644E0,7.687711572E0
4.036347500E-1,-2.935994568E0,-1.965861969E0,7.004084930E0,7.844863485E0
4.136467500E-1,-3.256029053E0,-2.143093414E0,6.980134735E0,7.994801780E0
4.236587500E-1,-3.404969330E0,-2.294279022E0,6.842870178E0,7.980125603E0
4.336707500E-1,-3.708538055E0,-2.445764008E0,6.574627991E0,7.934780987E0
4.436837500E-1,-3.388353882E0,-2.033820648E0,6.419849854E0,7.538689581E0
4.536957500E-1,-3.657045135E0,-1.574126587E0,6.799759827E0,7.879631167E0
4.637077500E-1,-4.088448029E0,-1.387764130E0,6.493496704E0,7.797871248E0
4.737197500E-1,-3.715423737E0,-1.148112488E0,5.825585632E0,7.004283246E0
4.837317500E-1,-4.238436127E0,-9.602531433E-1,5.616171112E0,7.101253753E0
4.937447500E-1,-4.994663544E0,-8.720864868E-1,5.807173920E0,7.709115882E0
5.037567500E-1,-5.773793335E0,-7.740403748E-1,6.187832336E0,8.498534991E0
5.137687500E-1,-6.462511139E0,-6.056405640E-1,6.492598572E0,9.180669198E0
5.237807500E-1,-6.927743683E0,-4.354444885E-1,6.695277100E0,9.644168180E0
5.337937500E-1,-7.516319733E0,-2.978805542E-1,7.345674591E0,1.051393030E1
5.438057500E-1,-8.282725983E0,-1.579216003E-1,8.381520538E0,1.178466696E1
5.538177500E-1,-8.739875336E0,5.074447632E-2,8.665779419E0,1.230787264E1
5.638297500E-1,-8.266559601E0,4.224215698E-1,7.875123596E0,1.142506102E1
5.738427500E-1,-7.507637787E0,7.478448486E-1,7.408094788E0,1.057372997E1
5.838547500E-1,-6.923253021E0,9.626481628E-1,8.128396912E0,1.072049254E1
5.938667500E-1,-6.484964447E0,1.030008087E0,9.023535461E0,1.115974340E1
6.038787500E-1,-5.765410767E0,1.050814819E0,9.006021881E0,1.074488731E1
6.138907500E-1,-4.968168640E0,1.213077393E0,8.910670166E0,1.027396220E1
6.239037500E-1,-4.320465546E0,1.416504364E0,8.294102325E0,9.458596118E0
6.339157500E-1,-3.855382690E0,1.824855194E0,7.748636627E0,8.845080087E0
6.439277500E-1,-3.209775238E0,2.406844940E0,7.678432617E0,8.663364652E0
6.539397500E-1,-2.414778442E0,2.809357910E0,7.439529419E0,8.310851026E0
6.639527500E-1,-1.806443481E0,2.915786591E0,7.053182831E0,7.842986519E0
6.739647500E-1,-1.761985931E0,2.809357910E0,6.410868530E0,7.217778162E0
6.839767500E-1,-2.065554657E0,2.549647980E0,5.679040375E0,6.558865789E0
6.939887500E-1,-2.530338135E0,2.305954742E0,5.256618805E0,6.273123593E0
7.040007500E-1,-2.714904327E0,2.479144592E0,5.329068146E0,6.474243641E0
7.140137500E-1,-2.098336487E0,2.042203217E0,6.636599121E0,7.253830566E0
7.240257500E-1,-1.412911835E0,8.414002991E-1,7.246580658E0,7.430828053E0
7.340377500E-1,-8.312214661E-1,2.665956116E-1,6.403683472E0,6.462906804E0
7.440497500E-1,4.349954224E-1,4.249662781E-1,5.901777191E0,5.933025482E0
7.540627500E-1,1.084943848E0,6.448590088E-1,5.624403992E0,5.764275024E0
7.640747500E-1,7.186555481E-1,4.331991577E-1,5.255570984E0,5.322138074E0
7.740867500E-1,7.658074951E-1,2.679428101E-1,5.190755768E0,5.253779583E0
7.840987500E-1,1.758692780E0,-4.930746460E-1,4.888983307E0,5.219030626E0
7.941117500E-1,2.241438904E0,-1.098715210E0,4.480931854E0,5.129324883E0
8.041237500E-1,2.015259247E0,-9.413923645E-1,4.491110687E0,5.011742673E0
8.141357500E-1,1.625619507E0,-4.367916870E-1,5.350773010E0,5.609295639E0
8.241477500E-1,1.102906494E0,4.090992737E-1,6.763984222E0,6.865511453E0
8.341597500E-1,7.542814636E-1,1.149459686E0,6.606511688E0,6.748051184E0
8.441727500E-1,9.437873840E-1,1.802252197E0,5.146747284E0,5.534243870E0
8.541847500E-1,1.710343323E0,2.336940308E0,4.238585815E0,5.133436860E0
8.641967500E-1,3.109633484E0,2.507286072E0,4.424349518E0,5.960803008E0
8.742087500E-1,5.103337555E0,2.353256378E0,5.209317169E0,7.662822923E0
8.842217500E-1,6.926396484E0,2.508333893E0,6.011648712E0,9.508239975E0
8.942337500E-1,7.940986633E0,2.786006470E0,6.226002960E0,1.046824788E1
9.042457500E-1,7.510930939E0,1.808988190E0,6.542295227E0,1.012364305E1
9.142577500E-1,7.018604736E0,7.569758606E-1,7.401209106E0,1.022798715E1
9.242707500E-1,6.444249115E0,3.397933960E-1,7.730673981E0,1.007011055E1
9.342827500E-1,5.741011505E0,1.731898499E-1,7.569908295E0,9.502248124E0
9.442947500E-1,5.135071564E0,-4.340972900E-2,6.995103607E0,8.677690871E0
9.543067500E-1,5.303920441E0,-3.041674805E-1,6.165528717E0,8.138662928E0
9.643187500E-1,5.948480072E0,-5.873785400E-1,5.457800446E0,8.094258114E0
9.743317500E-1,6.758146362E0,-8.936416626E-1,5.042863312E0,8.479481591E0
9.843437500E-1,7.509284363E0,-1.252894592E0,4.962929535E0,9.087891178E0
9.943557500E-1,8.204588470E0,-1.543290710E0,5.225034485E0,9.848756447E0
1.004368000E0,8.929830322E0,-1.936972046E0,5.875581665E0,1.086352568E1
1.014381000E0,9.372609558E0,-2.430046692E0,6.317163391E0,1.156103327E1
1.024393000E0,1.016116974E1,-2.800226898E0,6.077661438E0,1.216670086E1
1.034405000E0,1.124162292E1,-3.073259125E0,5.309907990E0,1.280680017E1
1.044417000E0,1.213062424E1,-3.349434814E0,4.484225006E0,1.335960448E1
1.054430000E0,1.249302063E1,-4.176015930E0,4.036206665E0,1.377699669E1
1.064442000E0,1.249885849E1,-5.045857086E0,3.850293274E0,1.401809172E1
1.074454000E0,1.284763321E1,-5.825286255E0,3.376378784E0,1.450501888E1
1.084466000E0,1.356434280E1,-6.476432190E0,3.069067841E0,1.534127593E1
1.094479000E0,1.404723862E1,-7.034022675E0,3.100053406E0,1.601289227E1
1.104491000E0,1.463341965E1,-7.610623627E0,3.105142822E0,1.678393501E1
1.114503000E0,1.501377869E1,-8.190966797E0,2.885699158E0,1.734453076E1
1.124515000E0,1.519280640E1,-8.785829773E0,2.965782623E0,1.779910216E1
1.134527000E0,1.526136383E1,-9.870923309E0,3.147654419E0,1.844592316E1
1.144540000E0,1.629451538E1,-1.025667114E1,2.213596802E0,1.938067453E1
1.154552000E0,1.515194138E1,-1.085797073E1,2.320324860E0,1.878458845E1
1.164564000E0,1.444975159E1,-1.141301651E1,2.570454712E0,1.859192040E1
1.174576000E0,1.410112656E1,-1.145852188E1,1.443298645E0,1.822697465E1
1.184589000E0,1.311647415E1,-1.080378342E1,1.545835419E0,1.706321299E1
1.194601000E0,1.270887177E1,-9.506880341E0,1.731150055E0,1.596537115E1
1.204613000E0,1.205233704E1,-8.472531281E0,1.681902466E0,1.482806158E1
1.214625000E0,1.153860535E1,-7.874075775E0,1.568588104E0,1.405706055E1
1.224638000E0,1.116483261E1,-7.443870392E0,1.658401337E0,1.352090931E1
1.234650000E0,1.067085983E1,-6.968309326E0,1.559906158E0,1.283969983E1
1.244662000E0,1.023152344E1,-6.345753937E0,1.470541992E0,1.212910379E1
1.254674000E0,9.704469452E0,-6.035299530E0,1.316512299E0,1.150368517E1
1.264686000E0,8.754395142E0,-5.936055908E0,1.216669922E0,1.064690001E1
1.274699000E0,8.130941620E0,-5.833519135E0,1.107247467E0,1.006817531E1
1.284711000E0,7.650141449E0,-5.684728546E0,9.024732971E-1,9.573675411E0
1.294723000E0,7.179669800E0,-5.803880768E0,7.032376099E-1,9.258900234E0
1.304735000E0,6.833140411E0,-6.109844513E0,3.993695068E-1,9.175047894E0
1.314748000E0,6.674170990E0,-6.250402222E0,1.549278259E-1,9.145276867E0
1.324760000E0,6.761589203E0,-6.273903351E0,-2.619552612E-2,9.223970837E0
1.334772000E0,6.929240570E0,-6.413712616E0,-5.433700562E-2,9.442088588E0
1.344784000E0,7.048991547E0,-6.603368225E0,2.993774414E-2,9.658863805E0
1.354797000E0,7.125183105E0,-6.736890564E0,1.097218323E-1,9.806424814E0
1.364809000E0,7.167994080E0,-6.720724182E0,1.612147522E-1,9.827220505E0
1.374821000E0,7.359595642E0,-6.764882355E0,2.442919922E-1,9.999347972E0
1.384833000E0,7.373816071E0,-6.839876404E0,2.736309814E-1,1.006140878E1
1.394846000E0,7.240144043E0,-6.802603912E0,3.728746033E-1,9.941536160E0
1.404858000E0,7.144792328E0,-6.688990173E0,3.782633972E-1,9.794576568E0
1.414870000E0,7.078330536E0,-6.633755035E0,2.618055725E-1,9.704535600E0
1.424882000E0,6.943460999E0,-6.584657135E0,1.703457642E-1,9.570704149E0
1.434894000E0,6.779551849E0,-6.515800323E0,1.353186035E-1,9.404057011E0
1.444907000E0,6.586902466E0,-6.464008026E0,5.134323120E-2,9.228939266E0
1.454919000E0,6.480473785E0,-6.449937286E0,-2.499801636E-2,9.143241022E0
1.464931000E0,6.397396545E0,-6.466103668E0,-3.562591553E-2,9.096067745E0
1.474943000E0,6.197861481E0,-6.452182617E0,-1.127156067E-1,8.947449484E0
1.484956000E0,5.983058167E0,-6.441554718E0,-2.589614868E-1,8.795321100E0
1.494968000E0,5.859864349E0,-6.479575653E0,-3.902384949E-1,8.745009830E0
1.504980000E0,5.805527344E0,-6.615193634E0,-5.520520020E-1,8.818712829E0
1.514992000E0,5.695805511E0,-6.750362549E0,-6.783892822E-1,8.858318519E0
1.525005000E0,5.561834106E0,-6.788533173E0,-8.527766418E-1,8.817335724E0
1.535017000E0,5.431604919E0,-6.825655975E0,-1.012195129E0,8.781597262E0
1.545029000E0,5.351521454E0,-6.929390259E0,-1.091081085E0,8.823020411E0
1.555041000E0,5.376220093E0,-7.021598511E0,-1.082848206E0,8.909497650E0
1.565053000E0,5.373076630E0,-7.074588318E0,-1.162332916E0,8.959395635E0
1.575066000E0,5.322481842E0,-7.039411469E0,-1.244512024E0,8.912403546E0
1.585078000E0,5.311255188E0,-7.018604736E0,-1.372046814E0,8.908016422E0
1.595090000E0,5.416486359E0,-7.050338745E0,-1.463656311E0,9.010432325E0
1.605102000E0,5.564528503E0,-7.085365906E0,-1.595532074E0,9.149432227E0
1.615115000E0,5.670208740E0,-7.027136993E0,-1.723366241E0,9.192492191E0
1.625127000E0,5.793851624E0,-6.993756409E0,-1.837878113E0,9.266020791E0
1.635139000E0,5.901328125E0,-6.959777069E0,-1.901795197E0,9.320997557E0
1.645151000E0,5.951773224E0,-6.890471191E0,-1.981279907E0,9.318136499E0
1.655164000E0,5.972579956E0,-6.897955627E0,-2.160457306E0,9.376624069E0
1.665176000E0,5.990243225E0,-7.088509369E0,-2.390678558E0,9.583596555E0
1.675188000E0,6.024971008E0,-6.865622864E0,-2.598745880E0,9.496869648E0
1.685200000E0,6.154302063E0,-6.574178925E0,-2.711311798E0,9.404598560E0
1.695213000E0,6.380481720E0,-6.676416321E0,-2.875071259E0,9.672182619E0
1.705225000E0,6.530918884E0,-6.868766327E0,-2.949616241E0,9.926383445E0
1.715237000E0,6.503376160E0,-6.901398468E0,-2.749332733E0,9.873298981E0
1.725249000E0,6.384822693E0,-6.939868469E0,-2.589016113E0,9.779097076E0
1.735261000E0,6.388415222E0,-7.009024658E0,-2.512974243E0,9.810877395E0
1.745274000E0,6.467899933E0,-7.066355438E0,-2.375559998E0,9.869670411E0
1.755286000E0,6.511010284E0,-7.118596802E0,-2.403551788E0,9.942069028E0
1.765298000E0,6.666836243E0,-7.248825989E0,-2.453697510E0,1.014952290E1
1.775310000E0,6.869664459E0,-7.510930939E0,-2.383343811E0,1.045402798E1
1.785323000E0,7.023993530E0,-7.848329315E0,-2.262545013E0,1.077273726E1
1.795335000E0,7.122937775E0,-8.154742126E0,-2.139500885E0,1.103691650E1
1.805347000E0,7.078480225E0,-8.269104309E0,-1.967358856E0,1.106135024E1
1.815359000E0,7.127428436E0,-8.211923218E0,-1.820214844E0,1.102493089E1
1.825372000E0,7.266638947E0,-8.224796448E0,-1.706002350E0,1.110683403E1
1.835384000E0,7.506440277E0,-8.583001556E0,-1.514101410E0,1.150248079E1
1.845396000E0,7.857460327E0,-9.288933563E0,-1.396446075E0,1.224638850E1
1.855408000E0,8.273894348E0,-9.929750977E0,-1.436263275E0,1.300461973E1
1.865421000E0,8.480165405E0,-1.034633469E1,-1.505868530E0,1.346207587E1
1.875433000E0,8.384514313E0,-1.028496231E1,-1.418899384E0,1.334517911E1
1.885445000E0,8.268206177E0,-9.928553467E0,-1.224304047E0,1.297837924E1
1.895457000E0,8.134983215E0,-9.612410889E0,-1.088985443E0,1.263971061E1
1.905470000E0,7.945177917E0,-9.408235474E0,-9.339079285E-1,1.234961258E1
1.915482000E0,7.668253784E0,-9.164991302E0,-8.351133728E-1,1.197900647E1
1.925494000E0,7.395221558E0,-8.801696777E0,-8.333171082E-1,1.152621297E1
1.935506000E0,7.237449646E0,-8.369096375E0,-8.678952026E-1,1.109845456E1
1.945518000E0,6.947053528E0,-7.896828461E0,-9.840536499E-1,1.056360800E1
1.955531000E0,6.487209778E0,-7.432943115E0,-1.078806610E0,9.924533125E0
1.965543000E0,6.152954865E0,-7.019353180E0,-1.092278595E0,9.398044752E0
1.975555000E0,5.781726837E0,-6.708150330E0,-1.147513733E0,8.929973899E0
1.985567000E0,5.510341187E0,-6.513704681E0,-1.249002686E0,8.622773126E0
1.995580000E0,5.414989471E0,-6.412664795E0,-1.401984558E0,8.509403119E0
2.005591458E0,5.322032776E0,-6.430028687E0,-1.506766663E0,8.481724327E0
2.015603458E0,5.322032776E0,-6.551725616E0,-1.494342499E0,8.572175974E0
2.025615458E0,5.343887329E0,-6.718029785E0,-1.436263275E0,8.703557214E0
2.035628458E0,5.338498535E0,-6.874005432E0,-1.377734985E0,8.811905071E0
2.045640458E0,5.357808380E0,-6.993756409E0,-1.249751129E0,8.898349129E0
2.055652458E0,5.359155579E0,-7.153324585E0,-1.111289062E0,9.006973105E0
2.065664458E0,5.449866943E0,-7.409142609E0,-9.891430664E-1,9.250667430E0
2.075677458E0,5.654641113E0,-7.757617950E0,-8.554710388E-1,9.637812671E0
2.085689458E0,5.888454895E0,-8.088430023E0,-7.403604126E-1,1.003218495E1
2.095701458E0,6.148763580E0,-8.299940186E0,-6.628216553E-1,1.035063443E1
2.105713458E0,6.353537750E0,-8.394393768E0,-6.701564026E-1,1.054904727E1
2.115726458E0,6.428980865E0,-8.449179840E0,-6.671626282E-1,1.063792935E1
2.125738458E0,6.396049347E0,-8.527616730E0,-6.520440674E-1,1.067964680E1
2.135750458E0,6.409521332E0,-8.544681244E0,-6.730004883E-1,1.070263850E1
2.145762458E0,6.475833435E0,-8.457712097E0,-7.303312683E-1,1.067720452E1
2.155774458E0,6.510860596E0,-8.303832092E0,-7.797285461E-1,1.058078020E1
2.165787458E0,6.542295227E0,-8.136480103E0,-7.939489746E-1,1.047063944E1
2.175799458E0,6.531817017E0,-7.998467102E0,-8.045768738E-1,1.035796570E1
2.185811458E0,6.463708649E0,-7.793842621E0,-8.265811157E-1,1.015907223E1
2.195823458E0,6.407725067E0,-7.509733429E0,-7.818241882E-1,9.902842308E0
2.205836458E0,6.344406738E0,-7.196884003E0,-7.771838379E-1,9.625520813E0
2.215848458E0,6.298901367E0,-6.912176056E0,-7.673043823E-1,9.383128065E0
2.225860458E0,6.242618408E0,-6.676266632E0,-7.740403748E-1,9.172892632E0
2.235872458E0,6.151308289E0,-6.504873047E0,-8.406518555E-1,8.992144492E0
2.245885458E0,6.154302063E0,-6.386918335E0,-9.015751648E-1,8.915211578E0
2.255897458E0,6.177803192E0,-6.328240356E0,-9.873468018E-1,8.898692713E0
2.265909458E0,6.218219147E0,-6.233786774E0,-1.103205872E0,8.873748368E0
2.275921458E0,6.258036346E0,-6.125861206E0,-1.211281128E0,8.840610635E0
2.285934458E0,6.311774597E0,-6.090983734E0,-1.253643036E0,8.860598302E0
2.295946458E0,6.298452301E0,-6.088888092E0,-1.249152374E0,8.849036176E0
2.305958458E0,6.214925995E0,-6.079757080E0,-1.203796692E0,8.777122407E0
2.315970458E0,6.207441559E0,-6.036347351E0,-1.171912994E0,8.737459592E0
2.325982458E0,6.346053314E0,-6.065386963E0,-1.176253967E0,8.856911712E0
2.335995458E0,6.423741760E0,-6.155499573E0,-1.215921478E0,8.979593434E0
2.346007458E0,6.465205536E0,-6.187832336E0,-1.216520233E0,9.031504477E0
2.356019458E0,6.547684021E0,-6.099965057E0,-1.194515991E0,9.028211794E0
2.366031458E0,6.722071381E0,-6.069877625E0,-1.242416382E0,9.141840979E0
2.376044458E0,6.919810181E0,-6.150260468E0,-1.273252258E0,9.345086841E0
2.386056458E0,6.951244812E0,-6.181545410E0,-1.258882141E0,9.387017223E0
2.396068458E0,6.771917725E0,-6.025420074E0,-1.246158600E0,9.149725023E0
2.406080458E0,6.622678070E0,-5.828729095E0,-1.177601166E0,8.900600665E0
2.416093458E0,6.546037445E0,-5.769003296E0,-1.118324432E0,8.796741146E0
2.426105458E0,6.452631683E0,-5.857020264E0,-1.216969299E0,8.798986094E0
2.436117458E0,6.379882965E0,-6.000422058E0,-1.390907593E0,8.868066049E0
2.446129458E0,6.334676971E0,-6.141129456E0,-1.498084717E0,8.949070407E0
2.456142458E0,6.337521057E0,-6.190826111E0,-1.565294952E0,8.996702139E0
2.466154458E0,6.454427948E0,-6.217919769E0,-1.645677795E0,9.112103039E0
2.476166458E0,6.613097992E0,-6.363267517E0,-1.750160522E0,9.342767277E0
2.486178458E0,6.765331421E0,-6.549929352E0,-1.822609863E0,9.591308068E0
2.496191458E0,6.929240570E0,-6.647227020E0,-1.807940369E0,9.770806022E0
2.506203458E0,7.061565399E0,-6.756050720E0,-1.753004608E0,9.928894822E0
2.516215458E0,7.180418243E0,-6.915618896E0,-1.756447449E0,1.012271201E1
2.526227458E0,7.231911163E0,-7.043453064E0,-1.806593170E0,1.025546435E1
2.536240458E0,7.288643188E0,-7.044051819E0,-1.868564301E0,1.030701305E1
2.546252458E0,7.350913696E0,-7.036567383E0,-1.944157104E0,1.035996909E1
2.556264458E0,7.407346344E0,-7.041507111E0,-2.031874695E0,1.042017836E1
2.566276458E0,7.450157318E0,-7.104975128E0,-2.096689911E0,1.050626595E1
2.576288458E0,7.475903778E0,-7.249125366E0,-2.073488159E0,1.061782977E1
2.586301458E0,7.672744446E0,-7.648794250E0,-1.942360840E0,1.100671733E1
2.596313458E0,7.883805542E0,-8.356522522E0,-1.919907532E0,1.164782827E1
2.606325458E0,7.893535309E0,-8.910221100E0,-1.958227844E0,1.206377205E1
2.616337458E0,7.808961182E0,-8.957672424E0,-1.879042511E0,1.203123314E1
2.626350458E0,7.732021179E0,-8.751700745E0,-1.772913208E0,1.181184315E1
2.636362458E0,7.813152466E0,-8.647517395E0,-1.663191376E0,1.177247273E1
2.646374458E0,7.838898926E0,-8.746910706E0,-1.525178375E0,1.184411045E1
2.656386458E0,7.870932312E0,-8.918453979E0,-1.372795258E0,1.197392850E1
2.666399458E0,7.874375153E0,-9.061107330E0,-1.243763580E0,1.206881924E1
2.676411458E0,7.754624176E0,-9.067394257E0,-1.190175018E0,1.199034409E1
2.686423458E0,7.500752106E0,-8.828640747E0,-1.204245758E0,1.164716221E1
2.696435458E0,7.137158203E0,-8.398285675E0,-1.307381287E0,1.109862493E1
2.706448458E0,6.691085815E0,-7.837851105E0,-1.430575104E0,1.040428203E1
2.716460458E0,6.217321014E0,-7.182064819E0,-1.565294952E0,9.627423537E0
2.726472458E0,5.773344269E0,-6.519093475E0,-1.630110168E0,8.859308266E0
2.736484458E0,5.337600403E0,-6.013744354E0,-1.627415771E0,8.203875993E0
2.746497458E0,4.944667511E0,-5.821693726E0,-1.564995575E0,7.796862560E0
2.756509458E0,4.674629059E0,-5.851332092E0,-1.517843628E0,7.641602801E0
2.766521458E0,4.527335358E0,-6.006259918E0,-1.470691681E0,7.663867018E0
2.776533458E0,4.545148315E0,-6.226751404E0,-1.429078217E0,7.840476440E0
2.786546458E0,4.722080383E0,-6.518494720E0,-1.311123505E0,8.155235215E0
2.796558458E0,4.993166656E0,-6.833888855E0,-1.148711243E0,8.541269675E0
2.806570458E0,5.377267914E0,-7.180418243E0,-1.071471863E0,9.034460046E0
2.816582458E0,5.807922363E0,-7.483088837E0,-1.099313965E0,9.536093116E0
2.826594458E0,6.097869415E0,-7.666607208E0,-1.168619843E0,9.865421929E0
2.836607458E0,6.319109344E0,-7.755073242E0,-1.238225098E0,1.007995562E1
2.846619458E0,6.499334564E0,-7.839946747E0,-1.292262726E0,1.026528410E1
2.856631458E0,6.566993866E0,-7.936645660E0,-1.347497864E0,1.038900877E1
2.866643458E0,6.557264099E0,-7.985743561E0,-1.388811951E0,1.042586262E1
2.876656458E0,6.530020752E0,-7.902067566E0,-1.477128296E0,1.035691802E1
2.886668458E0,6.539750519E0,-7.739804993E0,-1.588945770E0,1.025659138E1
2.896680458E0,6.538403320E0,-7.604336700E0,-1.713935852E0,1.017419435E1
2.906692458E0,6.560557251E0,-7.521708527E0,-1.828148346E0,1.014687819E1
2.916705458E0,6.547384644E0,-7.474406891E0,-1.951791229E0,1.012642548E1
2.926717458E0,6.509812775E0,-7.356452179E0,-2.091001740E0,1.004327334E1
2.936729458E0,6.527925110E0,-7.152725830E0,-2.197879486E0,9.930053740E0
2.946741458E0,6.516848145E0,-6.873406677E0,-2.286195831E0,9.743701579E0
2.956754458E0,6.401438141E0,-6.527026978E0,-2.303260345E0,9.427910673E0
2.966766458E0,6.273154907E0,-6.238277435E0,-2.276166687E0,9.135070478E0
2.976778458E0,6.170019379E0,-6.012397156E0,-2.273621979E0,8.909961593E0
2.986790458E0,6.082601166E0,-5.808670807E0,-2.322869568E0,8.725503797E0
2.996803458E0,5.998176727E0,-5.655688934E0,-2.396366730E0,8.585308083E0
3.006816083E0,5.944139099E0,-5.610033875E0,-2.437082062E0,8.529046763E0
3.016828083E0,5.965095520E0,-5.642965393E0,-2.412533112E0,8.558372451E0
3.026840083E0,6.026916962E0,-5.676944733E0,-2.362986145E0,8.610176135E0
3.036853083E0,6.092630310E0,-5.700296173E0,-2.351160736E0,8.668418389E0
3.046865083E0,6.207740936E0,-5.785918121E0,-2.322869568E0,8.798216812E0
3.056877083E0,6.328390045E0,-5.950725403E0,-2.338586884E0,8.996034793E0
3.066889083E0,6.470145264E0,-6.117927704E0,-2.389780426E0,9.219700082E0
3.076902083E0,6.617738342E0,-6.251899109E0,-2.407443695E0,9.416819441E0
3.086914083E0,6.755302277E0,-6.360573120E0,-2.406246185E0,9.585458777E0
3.096926083E0,6.817123718E0,-6.434070282E0,-2.404599609E0,9.677424010E0
3.106938083E0,6.868167572E0,-6.465654602E0,-2.403551788E0,9.734139738E0
3.116951083E0,6.950945435E0,-6.513854370E0,-2.401306458E0,9.824063003E0
3.126963083E0,6.991810455E0,-6.554869080E0,-2.382295990E0,9.875578782E0
3.136975083E0,7.008725281E0,-6.554869080E0,-2.379451904E0,9.886876659E0
3.146987083E0,7.008425903E0,-6.511459351E0,-2.403102722E0,9.863672704E0
3.156999083E0,7.013066254E0,-6.540648651E0,-2.393672333E0,9.883969359E0
3.167012083E0,7.036717072E0,-6.602919159E0,-2.400408325E0,9.943635587E0
3.177024083E0,6.978637848E0,-6.628366241E0,-2.493365021E0,9.942509460E0
3.187036083E0,6.934779053E0,-6.692433014E0,-2.518363037E0,9.961022666E0
3.197048083E0,6.926845551E0,-6.840175781E0,-2.504292297E0,1.005189902E1
3.207061083E0,6.846762085E0,-6.927893372E0,-2.556383972E0,1.007020142E1
3.217073083E0,6.787335663E0,-6.942562866E0,-2.632725220E0,1.005973889E1
3.227085083E0,6.787335663E0,-6.952741699E0,-2.667153625E0,1.007582508E1
3.237097083E0,6.740183716E0,-6.977440338E0,-2.676434326E0,1.006369966E1
3.247110083E0,6.692283325E0,-7.002288666E0,-2.671344910E0,1.004762590E1
3.257122083E0,6.663543091E0,-7.057673492E0,-2.660567322E0,1.006440163E1
3.267134083E0,6.673572235E0,-7.173981628E0,-2.646346893E0,1.014917389E1
3.277146083E0,6.738237762E0,-7.389533386E0,-2.552941132E0,1.032117049E1
3.287159083E0,6.928492126E0,-7.748037872E0,-2.288441162E0,1.064298158E1
3.297171083E0,7.145391083E0,-8.247249756E0,-1.903741150E0,1.107691169E1
3.307183083E0,7.294930115E0,-8.730295258E0,-1.391206970E0,1.146165422E1
3.317195083E0,7.475903778E0,-9.139244843E0,-9.231303406E-1,1.184344136E1
3.327208083E0,7.523654480E0,-9.554930420E0,-7.327262878E-1,1.218355284E1
3.337220083E0,7.199279022E0,-9.969717865E0,-9.984237671E-1,1.233781759E1
3.347232083E0,6.679260406E0,-1.013751892E1,-1.484762421E0,1.223054900E1
3.357244083E0,6.133944397E0,-9.934690704E0,-1.931134186E0,1.183438349E1
3.367257083E0,5.652844849E0,-9.657916260E0,-1.945653992E0,1.135850214E1
3.377269083E0,5.453160095E0,-9.463919678E0,-1.466500397E0,1.102058774E1
3.387281083E0,5.349425812E0,-9.366771698E0,-8.747808838E-1,1.082210747E1
3.397293083E0,5.339845734E0,-9.179511108E0,-6.313870239E-1,1.063842217E1
3.407306083E0,5.493276672E0,-8.829987946E0,-7.583230591E-1,1.042688015E1
3.417318083E0,5.763913879E0,-8.458909607E0,-9.177415466E-1,1.027706692E1
3.427330083E0,5.813610535E0,-8.279432831E0,-1.137933655E0,1.018046995E1
3.437342083E0,5.752687225E0,-8.366401978E0,-1.435664520E0,1.025432713E1
3.447355083E0,5.769751740E0,-8.362959137E0,-1.652862854E0,1.029373966E1
3.457367083E0,5.643414459E0,-8.203690338E0,-1.899699554E0,1.013693841E1
3.467379083E0,5.405559082E0,-8.024063873E0,-2.267784119E0,9.937228730E0
3.477391083E0,5.148543549E0,-7.779173126E0,-2.782114563E0,9.734639009E0
3.487404083E0,4.906047821E0,-7.494914246E0,-3.178340607E0,9.504993097E0
3.497416083E0,4.592449951E0,-7.302264862E0,-3.231031036E0,9.211581310E0
3.507428083E0,3.895948334E0,-7.442523193E0,-2.899470520E0,8.886872014E0
3.517440083E0,3.172353058E0,-7.769593048E0,-2.329156494E0,8.709498839E0
3.527452083E0,2.843187561E0,-7.856412506E0,-1.913321228E0,8.571331932E0
3.537465083E0,3.126548309E0,-7.596253510E0,-1.769320679E0,8.402908269E0
3.547477083E0,3.697311401E0,-7.309599609E0,-1.715881805E0,8.369265704E0
3.557489083E0,4.124822388E0,-7.337292023E0,-1.609303436E0,8.569706617E0
3.567501083E0,4.441414032E0,-7.528893585E0,-1.343156891E0,8.843894372E0
3.577514083E0,4.679419098E0,-7.684420166E0,-9.210346985E-1,9.044090960E0
3.587526083E0,4.806504822E0,-7.642357635E0,-3.824546814E-1,9.036281891E0
3.597538083E0,4.952601013E0,-7.628586273E0,-1.257385254E-1,9.096119805E0
3.607550083E0,5.060676270E0,-7.771688690E0,-2.769241333E-2,9.274176851E0
3.617563083E0,5.287754059E0,-7.969876556E0,1.676513672E-1,9.565949106E0
3.627575083E0,5.583988037E0,-8.151898041E0,1.739382935E-1,9.882541100E0
3.637587083E0,5.963898010E0,-8.318501587E0,1.410067749E-1,1.023647552E1
3.647599083E0,6.328539734E0,-8.467142487E0,2.447410583E-1,1.057368504E1
3.657612083E0,6.512357483E0,-8.503666534E0,3.144960022E-1,1.071550523E1
3.667624083E0,6.488107910E0,-8.436156921E0,3.453318787E-1,1.064817083E1
3.677636083E0,6.381978607E0,-8.300838318E0,3.981719971E-1,1.047817296E1
3.687648083E0,6.293213196E0,-8.110733643E0,4.360432434E-1,1.027514799E1
3.697661083E0,6.229894867E0,-7.898924103E0,4.132905579E-1,1.006853520E1
3.707673083E0,6.130501556E0,-7.734116821E0,3.294648743E-1,9.874621990E0
3.717685083E0,6.031856689E0,-7.641758881E0,2.094145203E-1,9.737742467E0
3.727697083E0,5.897585907E0,-7.579937439E0,4.745132446E-2,9.604125298E0
3.737710083E0,5.796995087E0,-7.568561096E0,-1.276844788E-1,9.534388938E0
3.747722083E0,5.774691467E0,-7.622299347E0,-3.116519165E-1,9.567843842E0
3.757734083E0,5.746999054E0,-7.698341217E0,-5.075944519E-1,9.620296656E0
3.767746083E0,5.676645355E0,-7.727380829E0,-7.185058594E-1,9.615246624E0
3.777759083E0,5.628146210E0,-7.706723785E0,-8.770262146E-1,9.583256036E0
3.787771083E0,5.584287415E0,-7.670349426E0,-1.016685791E0,9.542126401E0
3.797783083E0,5.599405975E0,-7.665559387E0,-1.109343109E0,9.557446842E0
3.807795083E0,5.643115082E0,-7.656128998E0,-1.178948364E0,9.583891605E0
3.817808083E0,5.577252045E0,-7.618407440E0,-1.240769806E0,9.522887273E0
3.827820083E0,5.465733948E0,-7.522756348E0,-1.292113037E0,9.388059797E0
3.837832083E0,5.400769043E0,-7.406448212E0,-1.347198486E0,9.264919057E0
3.847844083E0,5.380561066E0,-7.341483307E0,-1.453926544E0,9.217468032E0
3.857857083E0,5.390739899E0,-7.348368988E0,-1.496138763E0,9.235639374E0
3.867869083E0,5.464985504E0,-7.360643463E0,-1.455872498E0,9.282494464E0
3.877881083E0,5.517376556E0,-7.329957275E0,-1.381477203E0,9.277833637E0
3.887893083E0,5.567522278E0,-7.263345795E0,-1.299447784E0,9.243487491E0
3.897906083E0,5.685327301E0,-7.231162720E0,-1.239422607E0,9.281639359E0
3.907918083E0,5.781876526E0,-7.214696960E0,-1.191522217E0,9.322106714E0
3.917930083E0,5.858666840E0,-7.187154236E0,-1.196461945E0,9.349368125E0
3.927942083E0,5.928122406E0,-7.143445129E0,-1.221759338E0,9.362912979E0
3.937955083E0,5.972879333E0,-7.097640381E0,-1.237177277E0,9.358546582E0
3.947967083E0,5.984405365E0,-7.073690186E0,-1.238374786E0,9.347928783E0
3.957979083E0,6.011798401E0,-7.092700653E0,-1.205293579E0,9.375545594E0
3.967991083E0,6.083050232E0,-7.121590576E0,-1.157842255E0,9.437221580E0
3.978004083E0,6.148913269E0,-7.140601044E0,-1.132095795E0,9.490993549E0
3.988016083E0,6.244564362E0,-7.180867310E0,-1.122066650E0,9.582195623E0
3.998028083E0,6.319259033E0,-7.201224976E0,-1.091530151E0,9.642723368E0
4.008039458E0,6.398294678E0,-7.191195831E0,-1.093625793E0,9.687491401E0
4.018052458E0,6.507866821E0,-7.195087738E0,-1.174158325E0,9.772423747E0
4.028064458E0,6.617438965E0,-7.236252136E0,-1.230441284E0,9.882703536E0
4.038076458E0,6.672225037E0,-7.277566223E0,-1.278191986E0,9.955668326E0
4.048088458E0,6.700665894E0,-7.292086029E0,-1.337019653E0,9.993050767E0
4.058101458E0,6.649172974E0,-7.314838715E0,-1.341061249E0,9.975811342E0
4.068113458E0,6.566395111E0,-7.331005096E0,-1.331930237E0,9.931526501E0
4.078125458E0,6.519243164E0,-7.350464630E0,-1.276695099E0,9.907563378E0
4.088137458E0,6.521488495E0,-7.379055176E0,-1.253044281E0,9.927254779E0
4.098150458E0,6.588549042E0,-7.445966034E0,-1.239572296E0,1.001937763E1
4.108162458E0,6.686295776E0,-7.616611176E0,-1.219813385E0,1.020819581E1
4.118174458E0,6.837481384E0,-7.889643402E0,-1.195713501E0,1.050844210E1
4.128186458E0,7.037166138E0,-8.312963104E0,-1.143023071E0,1.095141838E1
4.138199458E0,7.307054901E0,-8.791667633E0,-1.163380737E0,1.149086271E1
4.148211458E0,7.535779266E0,-9.095386047E0,-1.230890350E0,1.187556767E1
4.158223458E0,7.594756622E0,-9.131311340E0,-1.300046539E0,1.194785738E1
4.168235458E0,7.513325958E0,-8.938063202E0,-1.321601715E0,1.175098599E1
4.178248458E0,7.346572723E0,-8.675658875E0,-1.255888367E0,1.143750162E1
4.188260458E0,7.123536530E0,-8.489296417E0,-1.182540894E0,1.114501365E1
4.198272458E0,6.864724731E0,-8.332572327E0,-1.154848480E0,1.085771073E1
4.208284458E0,6.636299744E0,-8.129145355E0,-1.132993927E0,1.055495873E1
4.218297458E0,6.450386353E0,-7.930508423E0,-1.123713226E0,1.028412268E1
4.228309458E0,6.281088409E0,-7.805668030E0,-1.138532410E0,1.008349052E1
4.238321458E0,6.096222839E0,-7.726033630E0,-1.158590698E0,9.909483386E0
4.248333458E0,5.923182678E0,-7.648345184E0,-1.152004395E0,9.742093780E0
4.258345458E0,5.741161194E0,-7.588769073E0,-1.134490814E0,9.583184090E0
4.268358458E0,5.539380798E0,-7.570507050E0,-1.079854431E0,9.442637460E0
4.278370458E0,5.371430054E0,-7.574398956E0,-1.006357269E0,9.340050071E0
4.288382458E0,5.243446198E0,-7.534282379E0,-9.532177734E-1,9.228638205E0
4.298394458E0,5.129383392E0,-7.445367279E0,-8.792715454E-1,9.083897091E0
4.308407458E0,5.089715881E0,-7.344177704E0,-7.488926697E-1,8.966771667E0
4.318419458E0,5.097799072E0,-7.294181671E0,-6.167175293E-1,8.920368947E0
4.328431458E0,5.149890747E0,-7.272476807E0,-5.424719238E-1,8.927741562E0
4.338443458E0,5.276078339E0,-7.221882019E0,-5.447172546E-1,8.960429645E0
4.348456458E0,5.408702545E0,-7.168742523E0,-6.104306030E-1,9.000975398E0
4.358468458E0,5.527854767E0,-7.198829956E0,-6.959028625E-1,9.103000157E0
4.368480458E0,5.624703369E0,-7.311695251E0,-7.616162109E-1,9.256253815E0
4.378492458E0,5.717061310E0,-7.430398407E0,-7.999365234E-1,9.409330951E0
4.388505458E0,5.779481506E0,-7.526049500E0,-7.955955505E-1,9.522436654E0
4.398517458E0,5.908513184E0,-7.610623627E0,-7.282356262E-1,9.662424497E0
4.408529458E0,6.061794434E0,-7.673343201E0,-6.794371033E-1,9.802406970E0
4.418541458E0,6.181096344E0,-7.738607483E0,-7.128176880E-1,9.929758650E0
4.428554458E0,6.210884399E0,-7.836803284E0,-6.903643799E-1,1.002333147E1
4.438566458E0,6.174809418E0,-7.881709900E0,-5.966592407E-1,1.003023552E1
4.448578458E0,6.143823853E0,-7.915240173E0,-6.857240295E-1,1.004329707E1
4.458591458E0,6.108048248E0,-7.970625000E0,-7.319778442E-1,1.006851071E1
4.468603458E0,6.079008636E0,-8.018824768E0,-6.771917725E-1,1.008535995E1
4.478615458E0,6.014642487E0,-8.054001617E0,-6.953041077E-1,1.007602670E1
4.488627458E0,5.958658905E0,-8.091124420E0,-7.617658997E-1,1.007731103E1
4.498639458E0,5.945935364E0,-8.130193176E0,-8.247848511E-1,1.010615943E1
4.508652458E0,5.935157776E0,-8.138276367E0,-9.253756714E-1,1.011503634E1
4.518664458E0,5.936504974E0,-8.089477844E0,-1.068627777E0,1.009077343E1
4.528676458E0,5.910010071E0,-8.003855896E0,-1.177002411E0,1.001874558E1
4.538688458E0,5.874384155E0,-7.878117371E0,-1.255888367E0,9.907087266E0
4.548701458E0,5.825136566E0,-7.723189545E0,-1.366059265E0,9.769646394E0
4.558713458E0,5.785768433E0,-7.581434326E0,-1.500330048E0,9.654234980E0
4.568725458E0,5.809119873E0,-7.469018097E0,-1.622775421E0,9.600286720E0
4.578737458E0,5.840554504E0,-7.427554321E0,-1.716330872E0,9.603459365E0
4.588750458E0,5.902974701E0,-7.420069885E0,-1.764081573E0,9.644404140E0
4.598762458E0,5.982309723E0,-7.366331635E0,-1.794169006E0,9.657635000E0
4.608774458E0,5.983207855E0,-7.329807587E0,-1.824106750E0,9.635985727E0
4.618786458E0,5.949228516E0,-7.282805328E0,-1.756447449E0,9.566487392E0
4.628799458E0,5.971232758E0,-7.227121124E0,-1.630409546E0,9.515520778E0
4.638811458E0,6.041736145E0,-7.187303925E0,-1.598525848E0,9.524452648E0
4.648823458E0,6.128106537E0,-7.169940033E0,-1.596280518E0,9.566077634E0
4.658835458E0,6.220763855E0,-7.176825714E0,-1.545386353E0,9.622523019E0
4.668848458E0,6.261179810E0,-7.158713379E0,-1.476080475E0,9.624363014E0
4.678860458E0,6.287974091E0,-7.109166412E0,-1.430425415E0,9.598175978E0
4.688872458E0,6.362968140E0,-7.070696411E0,-1.411115570E0,9.616306902E0
4.698884458E0,6.398444366E0,-7.056775360E0,-1.402733002E0,9.628386608E0
4.708897458E0,6.385571136E0,-7.054979095E0,-1.388063507E0,9.616390647E0
4.718909458E0,6.440357208E0,-7.082072754E0,-1.350641327E0,9.667377486E0
4.728921458E0,6.541247406E0,-7.140301666E0,-1.322050781E0,9.773415154E0
4.738933458E0,6.646927643E0,-7.186555481E0,-1.342558136E0,9.880824314E0
4.748946458E0,6.776408386E0,-7.192243652E0,-1.437909851E0,9.985773085E0
4.758958458E0,6.947053528E0,-7.187752991E0,-1.518143005E0,1.011089036E1
4.768970458E0,6.958579559E0,-7.145840149E0,-1.614392853E0,1.010401530E1
4.778982458E0,6.948101349E0,-7.024292908E0,-1.609752502E0,1.001039991E1
4.788995458E0,6.938072205E0,-6.899751892E0,-1.572030945E0,9.910333162E0
4.799007458E0,6.909631348E0,-6.806046753E0,-1.566342773E0,9.824393490E0
4.809019458E0,6.918912048E0,-6.711293793E0,-1.588646393E0,9.769166068E0
4.819031458E0,6.901997223E0,-6.583459625E0,-1.695524139E0,9.687843331E0
4.829044458E0,6.896159363E0,-6.471342773E0,-1.867366791E0,9.639623954E0
4.839056458E0,6.967261505E0,-6.429729309E0,-2.005529480E0,9.690526320E0
4.849068458E0,7.124284973E0,-6.459667053E0,-2.173330536E0,9.859315414E0
4.859081458E0,7.292984161E0,-6.518195343E0,-2.307002563E0,1.004971389E1
4.869093458E0,7.353907471E0,-6.538403320E0,-2.324067078E0,1.011098219E1
4.879105458E0,7.372468872E0,-6.521937561E0,-2.265389099E0,1.010054229E1
4.889117458E0,7.413932648E0,-6.547534332E0,-2.182910614E0,1.012924982E1
4.899129458E0,7.386090546E0,-6.575077057E0,-2.130220184E0,1.011552321E1
4.909142458E0,7.312593384E0,-6.578968964E0,-2.043849792E0,1.004660025E1
4.919154458E0,7.365732880E0,-6.559808807E0,-1.985171814E0,1.006111423E1
4.929166458E0,7.511080627E0,-6.561605072E0,-1.971849518E0,1.016657188E1
4.939178458E0,7.685168610E0,-6.637946320E0,-1.983974304E0,1.034699483E1
4.949191458E0,7.861950989E0,-6.775959320E0,-2.012115784E0,1.057225179E1
4.959203458E0,8.070167999E0,-6.962920532E0,-2.006726990E0,1.084605122E1
4.969215458E0,8.287965088E0,-7.147337036E0,-2.026186523E0,1.113014932E1
4.979228458E0,8.358468475E0,-7.200476532E0,-2.041305084E0,1.121952691E1
4.989240458E0,8.304580536E0,-7.094047852E0,-2.059417419E0,1.111452981E1
4.999252458E0,8.253536682E0,-6.888974304E0,-2.010169830E0,1.093707536E1
5.009264875E0,8.171357574E0,-6.704108734E0,-1.884131927E0,1.073620564E1
5.019277875E0,8.020321655E0,-6.588998108E0,-1.717229004E0,1.052089972E1
5.029289875E0,7.858957214E0,-6.501280518E0,-1.616937561E0,1.032687484E1
5.039301875E0,7.763006744E0,-6.432423706E0,-1.522334290E0,1.019597225E1
5.049313875E0,7.684120789E0,-6.380032654E0,-1.450334015E0,1.009227416E1
5.059326875E0,7.624993744E0,-6.335724792E0,-1.414857788E0,1.001417799E1
5.069338875E0,7.574997711E0,-6.299649811E0,-1.390907593E0,9.949914673E0
5.079350875E0,7.551496582E0,-6.264622650E0,-1.373843079E0,9.907474067E0
5.089362875E0,7.526348877E0,-6.188281403E0,-1.376387787E0,9.840487664E0
5.099375875E0,7.469766541E0,-6.055058441E0,-1.328487396E0,9.707008996E0
5.109387875E0,7.348518677E0,-5.873336334E0,-1.215771790E0,9.485510396E0
5.119399875E0,7.237599335E0,-5.709726562E0,-1.146765289E0,9.289719704E0
5.129411875E0,7.181016998E0,-5.621260529E0,-1.106948090E0,9.186452478E0
5.139424875E0,7.175927582E0,-5.609285431E0,-1.057999878E0,9.169372031E0
5.149436875E0,7.183561707E0,-5.635181580E0,-1.055455170E0,9.190909413E0
5.159448875E0,7.222630463E0,-5.619613953E0,-1.053658905E0,9.211766870E0
5.169460875E0,7.292086029E0,-5.628595276E0,-1.051413574E0,9.271519505E0
5.179473875E0,7.397466888E0,-5.701493683E0,-1.040186920E0,9.397421743E0
5.189485875E0,7.566465454E0,-5.830375671E0,-1.011895752E0,9.605655259E0
5.199497875E0,7.667954407E0,-5.967789917E0,-9.601034546E-1,9.763904952E0
5.209509875E0,7.786657562E0,-6.086493073E0,-8.994795227E-1,9.924036342E0
5.219522875E0,7.891888733E0,-6.174510040E0,-8.436456299E-1,1.005575556E1
5.229534875E0,7.940836945E0,-6.193670197E0,-8.120613098E-1,1.010336011E1
5.239546875E0,7.958949280E0,-6.134992218E0,-7.773335266E-1,1.007905008E1
5.249558875E0,7.960446167E0,-6.086942139E0,-7.467970276E-1,1.004874488E1
5.259571875E0,7.923323364E0,-6.054459686E0,-7.358697510E-1,9.998851910E0
5.269583875E0,7.843838654E0,-5.977819061E0,-7.387138367E-1,9.889682689E0
5.279595875E0,7.748936005E0,-5.887856140E0,-7.457492065E-1,9.760584051E0
5.289607875E0,7.676037598E0,-5.856122131E0,-7.704478455E-1,9.685520611E0
5.299620875E0,7.593259735E0,-5.829028473E0,-8.086184692E-1,9.606717971E0
5.309632875E0,7.503745880E0,-5.776188354E0,-8.527766418E-1,9.507774826E0
5.319644875E0,7.456593933E0,-5.739364929E0,-8.896000671E-1,9.451586700E0
5.329656875E0,7.407046967E0,-5.731880493E0,-9.078620911E-1,9.409729663E0
5.339669875E0,7.340136108E0,-5.747448120E0,-9.113049316E-1,9.367029127E0
5.349681875E0,7.298672333E0,-5.775739288E0,-9.147477722E-1,9.352355085E0
5.359693875E0,7.278614044E0,-5.799839172E0,-9.189390564E-1,9.352048215E0
5.369705875E0,7.223977661E0,-5.766009521E0,-9.012757874E-1,9.286819536E0
5.379718875E0,7.165449371E0,-5.710475006E0,-8.660989380E-1,9.203440490E0
5.389730875E0,7.161407776E0,-5.712271271E0,-8.259823608E-1,9.197719895E0
5.399742875E0,7.185208282E0,-5.782774658E0,-8.370593262E-1,9.261121375E0
5.409754875E0,7.222031708E0,-5.849835205E0,-8.828640747E-1,9.335832201E0
5.419767875E0,7.289990387E0,-5.859265594E0,-8.967851257E-1,9.395699905E0
5.429779875E0,7.357050934E0,-5.863456879E0,-8.984317017E-1,9.450582233E0
5.439791875E0,7.393574982E0,-5.914500732E0,-9.379495239E-1,9.514516237E0
5.449803875E0,7.417225800E0,-5.946384430E0,-9.737251282E-1,9.556299858E0
5.459816875E0,7.426506500E0,-5.953868866E0,-1.015637970E0,9.572516584E0
5.469828875E0,7.447462921E0,-5.945037231E0,-1.034947815E0,9.585368466E0
5.479840875E0,7.475155334E0,-5.892945557E0,-1.108145599E0,9.582940117E0
5.489852875E0,7.503895569E0,-5.878874817E0,-1.182690582E0,9.605642864E0
5.499865875E0,7.547604675E0,-5.924978943E0,-1.286873932E0,9.681309639E0
5.509877875E0,7.610923004E0,-5.971831512E0,-1.357527008E0,9.768920113E0
5.519889875E0,7.677235107E0,-6.017187195E0,-1.399888916E0,9.854246273E0
5.529901875E0,7.758516083E0,-6.073021088E0,-1.434916077E0,9.956663150E0
5.539914875E0,7.814200287E0,-6.110293579E0,-1.470092926E0,1.002789045E1
5.549926875E0,7.877518616E0,-6.122268677E0,-1.520837402E0,1.009209689E1
5.559938875E0,7.951913910E0,-6.149062958E0,-1.560654602E0,1.017249000E1
5.569951875E0,7.990383911E0,-6.182443542E0,-1.551523590E0,1.022135356E1
5.579963875E0,7.991431732E0,-6.158942413E0,-1.554517365E0,1.020843166E1
5.589975875E0,7.968978424E0,-6.077960815E0,-1.594184875E0,1.014828312E1
5.599987875E0,7.902366943E0,-5.977070618E0,-1.644180908E0,1.004370984E1
5.610000875E0,7.808512115E0,-5.871989136E0,-1.677112427E0,9.912911982E0
5.620012875E0,7.727829895E0,-5.770051117E0,-1.697021027E0,9.792483094E0
5.630024875E0,7.639962616E0,-5.761967926E0,-1.720073090E0,9.722548770E0
5.640036875E0,7.587721252E0,-5.806126099E0,-1.724414063E0,9.708667156E0
5.650049875E0,7.573949890E0,-5.849835205E0,-1.745969238E0,9.727985272E0
5.660061875E0,7.610024872E0,-5.900579681E0,-1.796863403E0,9.795817333E0
5.670073875E0,7.638615417E0,-5.951473846E0,-1.845961304E0,9.857791820E0
5.680085875E0,7.636070709E0,-5.987698517E0,-1.897005157E0,9.887402994E0
5.690098875E0,7.630831604E0,-6.036197662E0,-1.914069672E0,9.916094791E0
5.700110875E0,7.612120514E0,-6.094576263E0,-1.952988739E0,9.944968756E0
5.710122875E0,7.626640320E0,-6.093229065E0,-1.965412903E0,9.957707110E0
5.720134875E0,7.704179077E0,-6.108197937E0,-1.971101074E0,1.002744717E1
5.730147875E0,7.708669739E0,-6.158792725E0,-1.981429596E0,1.006381539E1
5.740159875E0,7.684270477E0,-6.133195953E0,-2.025737457E0,1.003831249E1
5.750171875E0,7.620652771E0,-6.093079376E0,-2.077679443E0,9.975806574E0
5.760183875E0,7.582931213E0,-6.106701050E0,-2.059118042E0,9.951512981E0
5.770196875E0,7.555388489E0,-6.122268677E0,-2.017504578E0,9.931585658E0
5.780208875E0,7.556735687E0,-6.086193695E0,-1.964814148E0,9.899823361E0
5.790220875E0,7.591762848E0,-6.056405640E0,-1.874551849E0,9.890847135E0
5.800232875E0,7.669002228E0,-6.074068909E0,-1.826052704E0,9.952003655E0
5.810245875E0,7.717501373E0,-6.120023346E0,-1.821711731E0,1.001664349E1
5.820257875E0,7.716902618E0,-6.106251984E0,-1.814526672E0,1.000646823E1
5.830269875E0,7.683072968E0,-6.056854706E0,-1.885778503E0,9.963496360E0
5.840281875E0,7.633675690E0,-6.010151825E0,-2.023192749E0,9.924124062E0
5.850294875E0,7.554640045E0,-5.948330383E0,-2.140399017E0,9.850712082E0
5.860306875E0,7.481891327E0,-5.826334076E0,-2.146985321E0,9.722880878E0
5.870318875E0,7.337890778E0,-5.684129791E0,-2.112706604E0,9.519322546E0
5.880330875E0,7.276219025E0,-5.539231110E0,-2.048639832E0,9.371412366E0
5.890343875E0,7.289840698E0,-5.565127258E0,-1.987267456E0,9.384116940E0
5.900355875E0,7.258106689E0,-5.729635162E0,-1.985321503E0,9.457818632E0
5.910367875E0,7.272626495E0,-5.875431976E0,-2.045496368E0,9.570572211E0
5.920379875E0,7.271728363E0,-6.035149841E0,-2.095043335E0,9.679373614E0
5.930392875E0,7.061565399E0,-6.241869965E0,-2.100432129E0,9.656006507E0
5.940404875E0,6.982829132E0,-6.270310822E0,-2.081271973E0,9.612928457E0
5.950416875E0,6.942113800E0,-6.226302338E0,-2.066153412E0,9.551375541E0
5.960429875E0,6.856342163E0,-6.223158875E0,-2.075434113E0,9.489181260E0
5.970441875E0,6.827152863E0,-6.242019653E0,-2.042203217E0,9.473300351E0
5.980453875E0,6.851701813E0,-6.283782806E0,-2.035467224E0,9.517083109E0
5.990465875E0,6.906338196E0,-6.351142731E0,-2.070644073E0,9.608438382E0
6.000478875E0,7.012766876E0,-6.447691956E0,-2.058369598E0,9.746205221E0
6.010491208E0,7.090455322E0,-6.502927094E0,-2.060614929E0,9.839143832E0
6.020503208E0,7.150480499E0,-6.568191376E0,-2.106569366E0,9.935197221E0
6.030515208E0,7.180268555E0,-6.682553558E0,-2.130519562E0,1.003752421E1
6.040528208E0,7.217690735E0,-6.747668152E0,-2.167342987E0,1.011550595E1
6.050540208E0,7.281757507E0,-6.827302551E0,-2.315684509E0,1.024687500E1
6.060552208E0,7.320377197E0,-6.877897339E0,-2.502795410E0,1.035168484E1
6.070564208E0,7.304659882E0,-6.810537415E0,-2.585423584E0,1.031629250E1
6.080577208E0,7.264842682E0,-6.703509979E0,-2.573149109E0,1.021450349E1
6.090589208E0,7.110962677E0,-6.543492737E0,-2.474504242E0,9.975282384E0
6.100601208E0,6.920408936E0,-6.313870239E0,-2.404599609E0,9.671562258E0
6.110613208E0,6.743626556E0,-6.075266418E0,-2.388582916E0,9.385664043E0
6.120626208E0,6.641538849E0,-5.981710968E0,-2.383493500E0,9.250510562E0
6.130638208E0,6.505022736E0,-5.978717194E0,-2.363435211E0,9.145829983E0
6.140650208E0,6.390361176E0,-5.982160034E0,-2.383343811E0,9.072115649E0
6.150662208E0,6.421047363E0,-6.076763306E0,-2.455942841E0,9.175432238E0
6.160675208E0,6.547534332E0,-6.318809967E0,-2.483335876E0,9.432100631E0
6.170687208E0,6.711144104E0,-6.616241455E0,-2.495310974E0,9.748881117E0
6.180699208E0,6.843319244E0,-6.844067688E0,-2.515219574E0,9.999930515E0
6.190711208E0,6.954837341E0,-7.021299133E0,-2.556084595E0,1.020793674E1
6.200724208E0,7.017706604E0,-7.169940033E0,-2.598446503E0,1.036379131E1
6.210736208E0,7.084617462E0,-7.277865601E0,-2.647394714E0,1.049608646E1
6.220748208E0,7.112758942E0,-7.348368988E0,-2.706821136E0,1.057907119E1
6.230760208E0,7.136559448E0,-7.397766266E0,-2.855761414E0,1.066830819E1
6.240773208E0,7.123835907E0,-7.375911713E0,-3.011886749E0,1.068758969E1
6.250785208E0,7.041507111E0,-7.236401825E0,-3.043321381E0,1.054562178E1
6.260797208E0,6.916367340E0,-6.994804230E0,-3.044967957E0,1.029734205E1
6.270810208E0,6.821165314E0,-6.760840759E0,-3.075803833E0,1.008453436E1
6.280822208E0,6.734345856E0,-6.595883789E0,-3.158282318E0,9.941420636E0
6.290834208E0,6.630910950E0,-6.428382111E0,-3.223396912E0,9.781787374E0
6.300846208E0,6.517147522E0,-6.240373077E0,-3.263363800E0,9.595051394E0
6.310859208E0,6.404880981E0,-6.082002411E0,-3.262315979E0,9.415729354E0
6.320871208E0,6.327791290E0,-5.971532135E0,-3.271746368E0,9.295400096E0
6.330883208E0,6.287674713E0,-5.919440460E0,-3.318598938E0,9.251363552E0
6.340895208E0,6.287824402E0,-5.880371704E0,-3.315605164E0,9.225440081E0
6.350908208E0,6.286477203E0,-5.881269836E0,-3.260968781E0,9.205598726E0
6.360920208E0,6.293362885E0,-5.889053650E0,-3.160827026E0,9.180315723E0
6.370932208E0,6.344855804E0,-5.933660889E0,-3.112477570E0,9.227840665E0
6.380944208E0,6.423292694E0,-5.972579956E0,-3.061583405E0,9.289978111E0
6.390957208E0,6.451284485E0,-5.965993652E0,-2.950214996E0,9.269084113E0
6.400969208E0,6.439159698E0,-5.908962250E0,-2.808459778E0,9.179654613E0
6.410981208E0,6.466253357E0,-5.884562988E0,-2.690954132E0,9.147772854E0
6.420993208E0,6.555617523E0,-5.919739838E0,-2.664758606E0,9.226070631E0
6.431006208E0,6.689588928E0,-6.035149841E0,-2.689008179E0,9.402361332E0
6.441018208E0,6.790778503E0,-6.147865448E0,-2.723735962E0,9.556655264E0
6.451030208E0,6.835834808E0,-6.158792725E0,-2.780318298E0,9.611947523E0
6.461042208E0,6.834637299E0,-6.102060699E0,-2.824326782E0,9.587712634E0
6.471055208E0,6.811734924E0,-6.067033539E0,-2.885998535E0,9.567529262E0
6.481067208E0,6.803951111E0,-6.068680115E0,-2.932102661E0,9.577048348E0
6.491079208E0,6.794670410E0,-6.081703033E0,-3.007096710E0,9.601941907E0
6.501091208E0,6.801556091E0,-6.067482605E0,-3.069367218E0,9.617511401E0
6.511104208E0,6.878047028E0,-6.082750854E0,-3.138074341E0,9.703344755E0
6.521116208E0,6.940167847E0,-6.110293579E0,-3.193459167E0,9.782627398E0
6.531128208E0,6.990612946E0,-6.108497314E0,-3.280727692E0,9.846094809E0
6.541141208E0,7.048392792E0,-6.138285370E0,-3.306474152E0,9.914189808E0
6.551153208E0,7.072642365E0,-6.189478912E0,-3.284769287E0,9.955984557E0
6.561165208E0,7.122638397E0,-6.201903076E0,-3.290158081E0,1.000103593E1
6.571177208E0,7.122937775E0,-6.120771790E0,-3.326382751E0,9.963177809E0
6.581190208E0,7.131470032E0,-6.086343384E0,-3.293750610E0,9.937315215E0
6.591202208E0,7.182364197E0,-6.134842529E0,-3.293600922E0,1.000352215E1
6.601214208E0,7.288343811E0,-6.223607941E0,-3.297043762E0,1.013527251E1
6.611226208E0,7.384893036E0,-6.325995026E0,-3.315605164E0,1.027366029E1
6.621239208E0,7.488028564E0,-6.406677246E0,-3.357368317E0,1.041095611E1
6.631251208E0,7.554789734E0,-6.455475769E0,-3.371139679E0,1.049345501E1
6.641263208E0,7.597600708E0,-6.504124603E0,-3.365750885E0,1.055250929E1
6.651275208E0,7.622898102E0,-6.504873047E0,-3.319048004E0,1.055642120E1
6.661288208E0,7.641160126E0,-6.449787598E0,-3.292702789E0,1.052753436E1
6.671300208E0,7.595056000E0,-6.383774872E0,-3.223396912E0,1.043205372E1
6.681312208E0,7.508685608E0,-6.276448059E0,-3.142265625E0,1.027852096E1
6.691324208E0,7.445516968E0,-6.168372803E0,-3.101849670E0,1.015411332E1
6.701337208E0,7.397915955E0,-6.133794708E0,-3.036884766E0,1.007845559E1
6.711349208E0,7.377558289E0,-6.194718018E0,-2.949017487E0,1.007470108E1
6.721361208E0,7.472311249E0,-6.387367401E0,-2.876717834E0,1.024252914E1
6.731373208E0,7.679181061E0,-6.748566284E0,-2.855761414E0,1.061453446E1
6.741386208E0,7.838150482E0,-7.108417969E0,-2.951711884E0,1.098539085E1
6.751398208E0,7.946674805E0,-7.298971710E0,-3.071462860E0,1.121866804E1
6.761410208E0,8.003406830E0,-7.363038483E0,-3.051554260E0,1.129516888E1
6.771423208E0,8.085885315E0,-7.513026581E0,-2.918630676E0,1.141689602E1
6.781435208E0,8.126600647E0,-7.720794525E0,-2.785407715E0,1.155035940E1
6.791447208E0,8.125852203E0,-7.795938263E0,-2.745141449E0,1.159059658E1
6.801459208E0,8.026159515E0,-7.617658997E0,-2.711910553E0,1.139308668E1
6.811472208E0,7.831713867E0,-7.267686768E0,-2.608475647E0,1.099814340E1
6.821484208E0,7.600893860E0,-6.908733215E0,-2.417921906E0,1.055227598E1
6.831496208E0,7.317533112E0,-6.586303711E0,-2.261646881E0,1.010152137E1
6.841508208E0,7.004983063E0,-6.217470703E0,-2.169738007E0,9.614285864E0
6.851521208E0,6.665189667E0,-5.771248627E0,-2.090702362E0,9.061076116E0
6.861533208E0,6.329437866E0,-5.365741882E0,-2.034419403E0,8.543525733E0
6.871545208E0,6.069727936E0,-5.086422729E0,-1.993704071E0,8.166281242E0
6.881557208E0,5.917793884E0,-4.949756927E0,-1.979034576E0,7.964732008E0
6.891570208E0,5.875581665E0,-4.987927551E0,-1.967658234E0,7.954467932E0
6.901582208E0,5.990093536E0,-5.190306702E0,-2.014810181E0,8.178017137E0
6.911594208E0,6.255641327E0,-5.532644806E0,-2.131118317E0,8.618867225E0
6.921606208E0,6.572532349E0,-5.992039490E0,-2.293680267E0,9.184970761E0
6.931619208E0,6.919211426E0,-6.524781647E0,-2.468816071E0,9.825645784E0
6.941631208E0,7.269782410E0,-7.021299133E0,-2.662662964E0,1.045170569E1
6.951643208E0,7.592660980E0,-7.399263153E0,-2.872825928E0,1.098411238E1
6.961656208E0,7.801177368E0,-7.620203705E0,-3.036585388E0,1.132019097E1
6.971668208E0,7.943830719E0,-7.670798492E0,-3.062780914E0,1.145976540E1
6.981680208E0,7.967331848E0,-7.521259460E0,-2.999163208E0,1.135969633E1
6.991692208E0,7.890092468E0,-7.247927856E0,-2.842888184E0,1.108458527E1
7.001705208E0,7.777376862E0,-6.949149170E0,-2.725232849E0,1.077984968E1
7.011717083E0,7.655829620E0,-6.658004608E0,-2.662962341E0,1.048961968E1
7.021729083E0,7.554789734E0,-6.393654327E0,-2.579735413E0,1.022783938E1
7.031741083E0,7.416028290E0,-6.155499573E0,-2.480940857E0,9.952020806E0
7.041754083E0,7.304659882E0,-5.968388672E0,-2.380050659E0,9.728533315E0
7.051766083E0,7.219786377E0,-5.871689758E0,-2.243684235E0,9.572678564E0
7.061778083E0,7.144792328E0,-5.827232208E0,-2.110610962E0,9.458296424E0
7.071790083E0,7.111711121E0,-5.834117889E0,-2.004781036E0,9.414484246E0
7.081803083E0,7.081174622E0,-5.927972717E0,-1.861379242E0,9.420648982E0
7.091815083E0,7.044949951E0,-6.065386963E0,-1.735341339E0,9.456830779E0
7.101827083E0,6.980434113E0,-6.209836578E0,-1.639989624E0,9.485678505E0
7.111840083E0,6.952891388E0,-6.357579346E0,-1.608105927E0,9.557589574E0
7.121852083E0,6.896608429E0,-6.527925110E0,-1.637295227E0,9.636272605E0
7.131864083E0,6.829098816E0,-6.672524414E0,-1.711540833E0,9.699924985E0
7.141876083E0,6.756649475E0,-6.740034027E0,-1.764979706E0,9.705437866E0
7.151889083E0,6.660549316E0,-6.751709747E0,-1.774859161E0,9.648762965E0
7.161901083E0,6.526128845E0,-6.705306244E0,-1.807491302E0,9.529874833E0
7.171913083E0,6.377188568E0,-6.615343323E0,-1.797611847E0,9.362836625E0
7.181925083E0,6.245462494E0,-6.496490479E0,-1.771566010E0,9.184151372E0
7.191938083E0,6.141877899E0,-6.424789581E0,-1.728605347E0,9.054759066E0
7.201950083E0,6.057752838E0,-6.366710358E0,-1.673370209E0,8.946034769E0
7.211962083E0,5.995332642E0,-6.286626892E0,-1.683848419E0,8.848787299E0
7.221974083E0,5.953719177E0,-6.169720001E0,-1.701362000E0,8.741101166E0
7.231987083E0,5.925727386E0,-6.077212372E0,-1.710343323E0,8.658639013E0
7.241999083E0,5.930966492E0,-6.028862915E0,-1.712738342E0,8.628848371E0
7.252011083E0,5.950725403E0,-6.019133148E0,-1.696721649E0,8.632494485E0
7.262023083E0,5.992189178E0,-6.046077118E0,-1.704954529E0,8.681488905E0
7.272036083E0,6.046376495E0,-6.071374512E0,-1.723366241E0,8.740151508E0
7.282048083E0,6.085295563E0,-6.059100037E0,-1.746418304E0,8.763189615E0
7.292060083E0,6.106401672E0,-5.982010345E0,-1.720971222E0,8.719766689E0
7.302073083E0,6.130202179E0,-5.915099487E0,-1.648222504E0,8.676659387E0
7.312085083E0,6.113736420E0,-5.883964233E0,-1.567540283E0,8.628788481E0
7.322097083E0,6.143225098E0,-5.889951782E0,-1.509610748E0,8.643475644E0
7.332109083E0,6.206094360E0,-5.950276337E0,-1.460961914E0,8.720997959E0
7.342122083E0,6.256389771E0,-6.033802643E0,-1.436263275E0,8.809769548E0
7.352134083E0,6.347250824E0,-6.139482880E0,-1.475481720E0,8.953093843E0
7.362146083E0,6.421047363E0,-6.292315063E0,-1.579365692E0,9.127840604E0
7.372158083E0,6.502927094E0,-6.440207520E0,-1.705553284E0,9.309846706E0
7.382171083E0,6.646328888E0,-6.637497253E0,-1.788780212E0,9.561892706E0
7.392183083E0,6.976542206E0,-7.027885437E0,-1.851799164E0,1.007434737E1
7.402195083E0,7.580087128E0,-7.892487488E0,-1.908231812E0,1.110812443E1
7.412207083E0,8.185877380E0,-9.015751648E0,-1.960622864E0,1.233435885E1
7.422220083E0,8.592731323E0,-9.708061981E0,-1.983225861E0,1.311543685E1
7.432232083E0,8.432714081E0,-9.549841003E0,-2.074236603E0,1.290784984E1
7.442244083E0,8.000862122E0,-8.727002106E0,-2.041005707E0,1.201416101E1
7.452256083E0,7.564369812E0,-7.989036713E0,-1.864223328E0,1.115884075E1
7.462269083E0,7.131919098E0,-7.605683899E0,-1.907633057E0,1.059951704E1
7.472281083E0,6.606362000E0,-7.244634705E0,-2.105521545E0,1.002805923E1
7.482293083E0,6.233337708E0,-6.821315002E0,-2.277813263E0,9.516999033E0
7.492306083E0,5.997128906E0,-6.529721375E0,-2.402953033E0,9.185695381E0
7.502318083E0,5.871091003E0,-6.421197052E0,-2.503693542E0,9.053726443E0
7.512330083E0,5.808521118E0,-6.406078491E0,-2.635868683E0,9.040163877E0
7.522342083E0,5.889802094E0,-6.396348724E0,-2.791544952E0,9.132128390E0
7.532355083E0,5.947282562E0,-6.438411255E0,-2.907853088E0,9.234658572E0
7.542367083E0,6.104156342E0,-6.483766937E0,-2.999911652E0,9.396777546E0
7.552379083E0,6.147865448E0,-6.466403046E0,-3.089126129E0,9.442103482E0
7.562391083E0,6.112838287E0,-6.441405029E0,-3.108435974E0,9.408552752E0
7.572404083E0,6.123615875E0,-6.483467560E0,-3.038531342E0,9.421607915E0
7.582416083E0,6.235583038E0,-6.653064880E0,-2.929707642E0,9.577523427E0
7.592428083E0,6.403982849E0,-6.862030334E0,-2.850222931E0,9.809292910E0
7.602440083E0,6.602320404E0,-7.026238861E0,-2.809058533E0,1.004238403E1
7.612453083E0,6.828350372E0,-7.185956726E0,-2.782114563E0,1.029584889E1
7.622465083E0,6.980733490E0,-7.334148560E0,-2.765499115E0,1.049611169E1
7.632477083E0,7.061864777E0,-7.420369263E0,-2.779869232E0,1.061411735E1
7.642490083E0,7.149432678E0,-7.471113739E0,-2.841091919E0,1.072397927E1
7.652502083E0,7.162904663E0,-7.515870667E0,-2.954705658E0,1.079471170E1
7.662514083E0,7.096442871E0,-7.527097321E0,-3.050656128E0,1.078532328E1
7.672526083E0,6.980733490E0,-7.474556580E0,-3.169658661E0,1.070730462E1
7.682539083E0,6.854096832E0,-7.404053192E0,-3.301085358E0,1.061582835E1
7.692551083E0,6.740333405E0,-7.316784668E0,-3.464695129E0,1.053430323E1
7.702563083E0,6.554869080E0,-7.185507660E0,-3.617677002E0,1.037715837E1
7.712575083E0,6.292614441E0,-7.040459290E0,-3.639980621E0,1.012000605E1
7.722588083E0,6.072871399E0,-6.874454498E0,-3.554957428E0,9.837459733E0
7.732600083E0,5.941744080E0,-6.697223053E0,-3.452270966E0,9.595587223E0
7.742612083E0,5.838758240E0,-6.554719391E0,-3.285068665E0,9.372679457E0
7.752624083E0,5.746999054E0,-6.466852112E0,-3.185076599E0,9.219158709E0
7.762637083E0,5.757028198E0,-6.448290710E0,-3.179538116E0,9.210498868E0
7.772649083E0,5.813909912E0,-6.483467560E0,-3.203937378E0,9.279122522E0
7.782661083E0,5.864504700E0,-6.547684021E0,-3.231180725E0,9.365100656E0
7.792674083E0,5.932014313E0,-6.626120911E0,-3.276686096E0,9.477918754E0
7.802686083E0,6.002218323E0,-6.690037994E0,-3.351979523E0,9.592653433E0
7.812698083E0,6.093229065E0,-6.722370758E0,-3.488795013E0,9.720565811E0
7.822710083E0,6.209088135E0,-6.744674377E0,-3.628304901E0,9.859411969E0
7.832723083E0,6.278394012E0,-6.786437531E0,-3.726650391E0,9.968043382E0
7.842735083E0,6.339616699E0,-6.800358582E0,-3.844006348E0,1.006041756E1
7.852747083E0,6.401438141E0,-6.785389709E0,-3.838467865E0,1.008730684E1
7.862759083E0,6.485712891E0,-6.788832550E0,-3.795507202E0,1.012712170E1
7.872772083E0,6.585704956E0,-6.773863678E0,-3.776197357E0,1.017430122E1
7.882784083E0,6.675667877E0,-6.799460449E0,-3.697012024E0,1.022081709E1
7.892796083E0,6.792425079E0,-6.816674652E0,-3.604205017E0,1.027591288E1
7.902808083E0,6.785838776E0,-6.840924225E0,-3.450774078E0,1.023492520E1
7.912821083E0,6.846911774E0,-6.780449982E0,-3.263812866E0,1.017384771E1
7.922833083E0,6.911128235E0,-6.729855194E0,-3.116519165E0,1.013742256E1
7.932845083E0,6.897207184E0,-6.710096283E0,-2.916235657E0,1.005491370E1
7.942858083E0,6.896009674E0,-6.674170990E0,-2.706072693E0,9.971075030E0
7.952870083E0,6.879394226E0,-6.637197876E0,-2.542163544E0,9.891463797E0
7.962882083E0,6.955136719E0,-6.603368225E0,-2.364632721E0,9.877747041E0
7.972894083E0,7.032076721E0,-6.668632507E0,-2.184407501E0,9.934404797E0
7.982907083E0,7.118596802E0,-6.774911499E0,-1.975142670E0,1.002372360E1
7.992919083E0,7.164251862E0,-6.897506561E0,-1.808090057E0,1.010798156E1
8.002931083E0,7.200775909E0,-7.033124542E0,-1.730251923E0,1.021321625E1
8.012945958E0,7.286547546E0,-7.200326843E0,-1.726659393E0,1.038844716E1
8.022958958E0,7.314539337E0,-7.310198364E0,-1.724863129E0,1.048411363E1
8.032970958E0,7.369924164E0,-7.325466614E0,-1.675166473E0,1.052541809E1
8.042982958E0,7.447313232E0,-7.339088287E0,-1.600022736E0,1.057755946E1
8.052995958E0,7.552993469E0,-7.417225800E0,-1.552870789E0,1.069926897E1
8.063007958E0,7.720046082E0,-7.627388763E0,-1.442849579E0,1.094796720E1
8.073019958E0,8.002359009E0,-8.006999359E0,-1.408870239E0,1.140765987E1
8.083031958E0,8.340655518E0,-8.496780853E0,-1.520388336E0,1.200305794E1
8.093044958E0,8.725355530E0,-8.953331451E0,-1.729653168E0,1.262084281E1
8.103056958E0,9.081464996E0,-9.309141541E0,-1.913021851E0,1.314506658E1
8.113068958E0,9.283993835E0,-9.455088043E0,-2.076781311E0,1.341283908E1
8.123080958E0,9.299860840E0,-9.325307922E0,-2.276615753E0,1.336531925E1
8.133093958E0,9.300010529E0,-8.957522736E0,-2.386487274E0,1.313098362E1
8.143105958E0,9.144184570E0,-8.413703613E0,-2.444566498E0,1.266421831E1
8.153117958E0,8.655301208E0,-7.398215332E0,-2.520758057E0,1.166199169E1
8.163129958E0,8.061486053E0,-5.956712952E0,-2.639610901E0,1.036520778E1
8.173142958E0,7.748037872E0,-4.778513031E0,-2.879711609E0,9.547723111E0
8.183154958E0,7.633825378E0,-4.686155090E0,-3.288212128E0,9.541890716E0
8.193166958E0,7.742798767E0,-5.385650482E0,-3.886817322E0,1.020115252E1
8.203179958E0,7.965834961E0,-5.978268127E0,-4.534071350E0,1.094312658E1
8.213191958E0,8.140072632E0,-6.039191437E0,-4.691992950E0,1.116903816E1
8.223203958E0,8.382418671E0,-6.313271484E0,-4.220323792E0,1.131076799E1
8.233215958E0,8.472381592E0,-6.642287292E0,-3.705544281E0,1.138561763E1
8.243228958E0,8.724457397E0,-7.016359406E0,-3.193459167E0,1.164232097E1
8.253240958E0,9.066795502E0,-7.489375763E0,-2.789299622E0,1.208626172E1
8.263252958E0,9.476044464E0,-7.940687256E0,-2.520758057E0,1.261761285E1
8.273264958E0,9.760003967E0,-8.247549133E0,-2.186952209E0,1.296389232E1
8.283277958E0,9.853110352E0,-8.408913574E0,-1.847607880E0,1.308461944E1
8.293289958E0,9.727072449E0,-8.442593536E0,-1.575024719E0,1.297590178E1
8.303301958E0,9.545050964E0,-8.343050537E0,-1.312770081E0,1.274511104E1
8.313314958E0,9.363777924E0,-8.180488586E0,-1.068478088E0,1.247967852E1
8.323326958E0,9.138496399E0,-8.010292511E0,-9.041198730E-1,1.218582518E1
8.333338958E0,8.828041992E0,-7.801327057E0,-8.213420105E-1,1.180972616E1
8.343350958E0,8.604856110E0,-7.575596466E0,-8.319699097E-1,1.149458065E1
8.353363958E0,8.380772095E0,-7.422015839E0,-8.762777710E-1,1.122904817E1
8.363375958E0,8.191116486E0,-7.261848907E0,-9.228309631E-1,1.098546566E1
8.373387958E0,8.007897491E0,-7.055278473E0,-9.178912354E-1,1.071195131E1
8.383399958E0,7.797884216E0,-6.812633057E0,-8.190966797E-1,1.038700567E1
8.393412958E0,7.569608917E0,-6.563551025E0,-7.457492065E-1,1.004665731E1
8.403424958E0,7.422913971E0,-6.314768372E0,-7.589218140E-1,9.775065919E0
8.413436958E0,7.257058868E0,-6.148314514E0,-7.358697510E-1,9.539820705E0
8.423449958E0,7.266189880E0,-6.092480621E0,-7.128176880E-1,9.509150570E0
8.433461958E0,7.374265137E0,-6.065686340E0,-7.665559387E-1,9.579141146E0
8.443473958E0,7.394473114E0,-6.076164551E0,-8.824150085E-1,9.611277986E0
8.453485958E0,7.227570190E0,-5.985004120E0,-9.105564880E-1,9.427998637E0
8.463498958E0,7.034471741E0,-5.811065826E0,-9.141490173E-1,9.169948044E0
8.473510958E0,7.171436920E0,-5.665867767E0,-6.267466736E-1,9.161024858E0
8.483522958E0,7.067852325E0,-5.420228577E0,-5.785469055E-1,8.925700580E0
8.493534958E0,6.816524963E0,-5.301525421E0,-6.093827820E-1,8.656935471E0
8.503547958E0,6.671027527E0,-5.226231995E0,-5.315446472E-1,8.491092323E0
8.513559958E0,6.551725616E0,-5.134622498E0,-4.872367859E-1,8.338276586E0
8.523571958E0,6.379134521E0,-4.984933777E0,-5.539979553E-1,8.114791170E0
8.533583958E0,6.261030121E0,-4.862039337E0,-5.647755432E-1,7.947257143E0
8.543596958E0,6.315367126E0,-4.784051514E0,-6.483018494E-1,7.949295951E0
8.553608958E0,6.458469543E0,-4.725672913E0,-8.482859802E-1,8.047571213E0
8.563620958E0,6.620432739E0,-4.682861938E0,-1.012344818E0,8.172158076E0
8.573633958E0,6.605314178E0,-4.677323456E0,-1.152004395E0,8.175245821E0
8.583645958E0,6.608757019E0,-4.676425323E0,-1.163680115E0,8.179167106E0
8.593657958E0,6.694528656E0,-4.648433533E0,-1.084943848E0,8.222028423E0
8.603669958E0,6.706952820E0,-4.640500031E0,-9.442364502E-1,8.210300794E0
8.613682958E0,6.729705505E0,-4.687502289E0,-7.595205688E-1,8.236412167E0
8.623694958E0,6.796766052E0,-4.766088867E0,-7.024891663E-1,8.330973706E0
8.633706958E0,7.069947968E0,-4.970563660E0,-6.248007202E-1,8.664931812E0
8.643718958E0,7.541018372E0,-5.336253204E0,-4.454736328E-1,9.248837932E0
8.653731958E0,7.890691223E0,-5.657784576E0,-4.986131287E-1,9.722250220E0
8.663743958E0,8.174800415E0,-5.764362946E0,-8.092172241E-1,1.003544092E1
8.673755958E0,8.161029053E0,-5.515430603E0,-1.083446960E0,9.909400953E0
8.683768958E0,7.947423248E0,-5.076243896E0,-1.153351593E0,9.500526737E0
8.693780958E0,7.859705658E0,-4.760400696E0,-1.092128906E0,9.253601102E0
8.703792958E0,7.785460052E0,-4.653522949E0,-1.073717194E0,9.133538891E0
8.713804958E0,7.747738495E0,-4.657414856E0,-1.134939880E0,9.110820680E0
8.723817958E0,7.719447327E0,-4.622238007E0,-1.342408447E0,9.097088087E0
8.733829958E0,7.768545227E0,-4.497846680E0,-1.648521881E0,9.126803608E0
8.743841958E0,7.767048340E0,-4.438719635E0,-1.961820374E0,9.158493931E0
8.753853958E0,7.771688690E0,-4.406686249E0,-2.188598785E0,9.198260348E0
8.763866958E0,7.993976440E0,-4.379143524E0,-2.195783844E0,9.375607928E0
8.773878958E0,8.416547699E0,-4.455185394E0,-1.963466949E0,9.723279001E0
8.783890958E0,9.030271454E0,-4.736450500E0,-1.675166473E0,1.033372869E1
8.793903958E0,9.567953339E0,-5.153932343E0,-1.548080750E0,1.097749077E1
8.803915958E0,9.966424713E0,-5.562582550E0,-1.664239197E0,1.153436770E1
8.813927958E0,1.040186920E1,-5.942941589E0,-1.821562042E0,1.211757096E1
8.823939958E0,1.114657059E1,-6.426585846E0,-1.895208893E0,1.300533960E1
8.833952958E0,1.168245621E1,-6.948700104E0,-2.053579559E0,1.374705078E1
8.843964958E0,1.175340866E1,-7.305558014E0,-2.087109833E0,1.399534996E1
8.853976958E0,1.181837357E1,-7.564818878E0,-1.957329712E0,1.416797720E1
8.863989958E0,1.190025330E1,-7.775430908E0,-1.813927917E0,1.433051600E1
8.874001958E0,1.190294769E1,-7.996820526E0,-1.723964996E0,1.444303838E1
8.884013958E0,1.159219391E1,-8.179141388E0,-1.982926483E0,1.432512865E1
8.894025958E0,1.130673752E1,-8.351582794E0,-2.339335327E0,1.425004345E1
8.904038958E0,1.109941864E1,-8.560847626E0,-2.433938599E0,1.422706095E1
8.914050958E0,1.091485245E1,-8.563691711E0,-2.416574707E0,1.408228153E1
8.924062958E0,1.080782501E1,-8.400830383E0,-2.311044159E0,1.388250546E1
8.934074958E0,1.074794952E1,-8.194409637E0,-2.151176605E0,1.368555184E1
8.944087958E0,1.062610291E1,-8.008346558E0,-2.024240570E0,1.345902030E1
8.954099958E0,1.049841843E1,-7.901618500E0,-1.978136444E0,1.328779094E1
8.964111958E0,1.041549088E1,-7.864046631E0,-1.967209167E0,1.319831775E1
8.974123958E0,1.030217651E1,-7.798932037E0,-1.987566833E0,1.307320174E1
8.984136958E0,1.019649628E1,-7.788304138E0,-1.933978271E0,1.297561134E1
8.994148958E0,1.009306137E1,-7.793094177E0,-1.792372742E0,1.287690975E1
9.004160958E0,1.002121078E1,-7.785010986E0,-1.644779663E0,1.279595099E1
9.014171125E0,9.996212769E0,-7.802674255E0,-1.489552460E0,1.276811504E1
9.024183125E0,9.827812958E0,-7.861950989E0,-1.325493622E0,1.265516156E1
9.034195125E0,9.718240814E0,-7.921676788E0,-1.167572021E0,1.259207656E1
9.044207125E0,9.589957581E0,-8.028105469E0,-1.047671356E0,1.255051310E1
9.054220125E0,9.425150299E0,-8.113577728E0,-8.190966797E-1,1.246332705E1
9.064232125E0,9.320218506E0,-8.129295044E0,-6.004014587E-1,1.238193817E1
9.074244125E0,9.207802277E0,-8.102949829E0,-4.674778748E-1,1.227436166E1
9.084256125E0,9.108558655E0,-8.002957764E0,-3.695814514E-1,1.213053025E1
9.094269125E0,9.053173828E0,-7.956554260E0,-2.954855347E-1,1.205628565E1
9.104281125E0,9.025631104E0,-7.938591614E0,-2.592608643E-1,1.202291436E1
9.114293125E0,8.974287872E0,-7.855065308E0,-1.745370483E-1,1.192771382E1
9.124306125E0,9.000034332E0,-7.714956665E0,-1.651066589E-1,1.185531250E1
9.134318125E0,9.012608185E0,-7.605384521E0,-2.137554932E-1,1.179468827E1
9.144330125E0,9.003028107E0,-7.527696075E0,-2.591111755E-1,1.173830745E1
9.154342125E0,8.953331451E0,-7.401807861E0,-3.121009827E-1,1.162094276E1
9.164355125E0,8.946745148E0,-7.276668091E0,-3.453318787E-1,1.153747812E1
9.174367125E0,8.976233826E0,-7.174730072E0,-3.968247986E-1,1.149813007E1
9.184379125E0,9.021739197E0,-7.084318085E0,-4.517605591E-1,1.147969636E1
9.194392125E0,9.274114380E0,-7.234306183E0,-4.903802490E-1,1.177220694E1
9.204404125E0,9.880802765E0,-7.917186127E0,-6.491999817E-1,1.267807399E1
9.214416125E0,1.056697586E1,-8.925639038E0,-1.034947815E0,1.387080128E1
9.224428125E0,1.111738129E1,-9.518406372E0,-1.465452576E0,1.470862936E1
9.234441125E0,1.135703293E1,-9.261241150E0,-1.938468933E0,1.478209885E1
9.244453125E0,1.128009293E1,-8.231233063E0,-2.336341553E0,1.415811379E1
9.254465125E0,1.083297272E1,-6.832691345E0,-2.366279297E0,1.302452481E1
9.264477125E0,1.039079224E1,-5.618715820E0,-1.968406677E0,1.197552319E1
9.274490125E0,9.832752686E0,-4.714895325E0,-1.587748260E0,1.101971905E1
9.284502125E0,9.237290955E0,-4.187991028E0,-1.497336273E0,1.025225970E1
9.294514125E0,8.769064636E0,-4.017645264E0,-1.741478577E0,9.801567002E0
9.304527125E0,8.270601196E0,-4.108356628E0,-2.049088898E0,9.459397636E0
9.314539125E0,7.862699432E0,-4.367617493E0,-2.296075287E0,9.282784423E0
9.324551125E0,7.632927246E0,-4.712649994E0,-2.499202881E0,9.312178228E0
9.334563125E0,7.704179077E0,-5.123395844E0,-2.570155334E0,9.602565213E0
9.344576125E0,7.840545502E0,-5.652246094E0,-2.445913696E0,9.970182219E0
9.354588125E0,7.835156708E0,-6.206842804E0,-2.178419952E0,1.023035150E1
9.364600125E0,7.879165192E0,-6.739135895E0,-1.850302277E0,1.053189514E1
9.374613125E0,8.087980957E0,-7.248227234E0,-1.505269775E0,1.096440017E1
9.384625125E0,8.318202209E0,-7.718100128E0,-1.205892334E0,1.141121089E1
9.394637125E0,8.493338013E0,-8.138276367E0,-8.174501038E-1,1.179137640E1
9.404649125E0,8.666078796E0,-8.512947235E0,-4.141886902E-1,1.215494733E1
9.414662125E0,8.928483124E0,-9.034762115E0,-9.654922485E-2,1.270252176E1
9.424674125E0,9.169481964E0,-9.715995483E0,1.326242065E-1,1.336029778E1
9.434686125E0,9.285341034E0,-1.030771500E1,2.534230042E-1,1.387554575E1
9.444698125E0,9.326355743E0,-1.079375427E1,1.924996948E-1,1.426615221E1
9.454711125E0,9.396260376E0,-1.120105728E1,9.804611206E-2,1.462063632E1
9.464723125E0,9.358838196E0,-1.147753235E1,-1.796264648E-3,1.480951061E1
9.474735125E0,9.371561737E0,-1.156300461E1,-1.134640503E-1,1.488429102E1
9.484748125E0,9.574539642E0,-1.152767807E1,-8.232879639E-2,1.498552465E1
9.494760125E0,9.493857422E0,-1.138472534E1,1.170565796E-1,1.482427071E1
9.504772125E0,8.665929108E0,-1.094598770E1,3.245251465E-1,1.396489494E1
9.514784125E0,7.780819702E0,-1.026370651E1,8.026309204E-1,1.290461325E1
9.524797125E0,7.312593384E0,-9.811047821E0,1.317859497E0,1.230721069E1
9.534809125E0,7.120842133E0,-9.691296844E0,1.651815033E0,1.213903291E1
9.544821125E0,7.082671509E0,-9.735754395E0,1.792821808E0,1.217223724E1
9.554833125E0,7.433691559E0,-9.808503113E0,1.774410095E0,1.243442941E1
9.564846125E0,8.037236481E0,-1.002031265E1,1.726060638E0,1.296083027E1
9.574858125E0,8.166268158E0,-1.030142807E1,1.412911835E0,1.322133411E1
9.584870125E0,8.099656677E0,-1.043884232E1,1.018631744E0,1.325184809E1
9.594883125E0,8.070167999E0,-1.049228119E1,7.575746155E-1,1.325856310E1
9.604895125E0,7.745044098E0,-1.055305481E1,4.010160828E-1,1.309631581E1
9.614907125E0,7.463629303E0,-1.059017761E1,2.993774414E-4,1.295598797E1
9.624919125E0,7.186106415E0,-1.062969543E1,-3.582051086E-1,1.283584284E1
9.634932125E0,7.013515320E0,-1.064825684E1,-7.873626709E-1,1.277476852E1
9.644944125E0,6.841522980E0,-1.059885956E1,-1.179846497E0,1.267021304E1
9.654956125E0,6.632258148E0,-1.038555313E1,-1.434616699E0,1.240583278E1
9.664969125E0,6.387816467E0,-9.924811249E0,-1.565594330E0,1.190618172E1
9.674981125E0,6.098168793E0,-9.427395630E0,-1.525777130E0,1.133099496E1
9.684993125E0,5.804629211E0,-9.137598267E0,-1.523831177E0,1.093213080E1
9.695005125E0,5.643414459E0,-8.944948883E0,-1.753004608E0,1.072069319E1
9.705018125E0,5.475613403E0,-8.653205566E0,-2.088906097E0,1.045102088E1
9.715030125E0,5.385351105E0,-8.257578278E0,-2.366728363E0,1.013859007E1
9.725042125E0,5.287304993E0,-7.870183868E0,-2.556084595E0,9.819824676E0
9.735054125E0,5.205574951E0,-7.571405182E0,-2.608924713E0,9.551475025E0
9.745067125E0,5.121898956E0,-7.362439728E0,-2.694696350E0,9.364868183E0
9.755079125E0,5.047503662E0,-7.134613495E0,-2.907254333E0,9.210435967E0
9.765091125E0,5.071902924E0,-6.953789520E0,-3.205733643E0,9.184558571E0
9.775104125E0,5.058281250E0,-6.912475433E0,-3.561693420E0,9.276539540E0
9.785116125E0,4.953948212E0,-6.904691620E0,-3.877835999E0,9.340983957E0
9.795128125E0,4.895270233E0,-6.910828857E0,-4.098926239E0,9.408741811E0
9.805140125E0,4.912484436E0,-6.968459015E0,-4.208498383E0,9.508069363E0
9.815153125E0,4.916975098E0,-6.939419403E0,-4.278852081E0,9.520544149E0
9.825165125E0,4.978347473E0,-6.841822357E0,-4.312382355E0,9.496900458E0
9.835177125E0,4.940326538E0,-6.661447449E0,-4.295916595E0,9.340053951E0
9.845190125E0,5.127138062E0,-6.600075073E0,-3.989054718E0,9.260728547E0
9.855202125E0,5.192102966E0,-6.583908691E0,-3.833378448E0,9.219575760E0
9.865214125E0,5.328020325E0,-6.679260406E0,-3.782633972E0,9.343909242E0
9.875226125E0,5.607339478E0,-6.878496094E0,-3.749852142E0,9.634176437E0
9.885239125E0,5.820945282E0,-7.157815247E0,-3.785777435E0,9.972453754E0
9.895251125E0,6.049220581E0,-7.439828796E0,-3.776945801E0,1.030579651E1
9.905263125E0,6.267766113E0,-7.658823395E0,-3.682641907E0,1.055956056E1
9.915275125E0,6.467151489E0,-7.781717834E0,-3.557502136E0,1.072543716E1
9.925288125E0,6.682104492E0,-7.813900909E0,-3.364852753E0,1.081803133E1
9.935300125E0,6.836134186E0,-7.791746979E0,-3.156486053E0,1.083547211E1
9.945312125E0,6.969057770E0,-7.776029663E0,-2.977608032E0,1.085820211E1
9.955325125E0,7.130571899E0,-7.847281494E0,-2.839595032E0,1.097671091E1
9.965337125E0,7.299420776E0,-7.972121887E0,-2.734363861E0,1.114957474E1
9.975349125E0,7.476053467E0,-8.077502747E0,-2.659968567E0,1.132311171E1
9.985361125E0,7.713459778E0,-8.172405396E0,-2.560575256E0,1.152571982E1
9.995374125E0,7.987090759E0,-8.342900848E0,-2.520308990E0,1.182157226E1
1.000538612E1,8.210426331E0,-8.511600037E0,-2.582878876E0,1.210494523E1
1.001539846E1,8.445287933E0,-8.581055603E0,-2.620750122E0,1.232175859E1
1.002541146E1,8.657995605E0,-8.637039185E0,-2.637215881E0,1.251056519E1
1.003542346E1,8.832382965E0,-8.750652924E0,-2.667602692E0,1.271617158E1
1.004543546E1,8.979976044E0,-8.852890320E0,-2.661914520E0,1.288795661E1
1.005544746E1,9.141639862E0,-8.884624329E0,-2.594105530E0,1.300905501E1
1.006546046E1,9.310788116E0,-8.856782227E0,-2.507884827E0,1.309285504E1
1.007547246E1,9.458680573E0,-8.810827789E0,-2.433040466E0,1.315359306E1
1.008548446E1,9.553732910E0,-8.712781677E0,-2.402054901E0,1.315128301E1
1.009549646E1,9.637109528E0,-8.588989105E0,-2.377805328E0,1.312625507E1
1.010550946E1,9.609117737E0,-8.422385559E0,-2.366279297E0,1.299503751E1
1.011552146E1,9.592951355E0,-8.265960846E0,-2.338886261E0,1.287715859E1
1.012553346E1,9.497599640E0,-8.089477844E0,-2.335892487E0,1.269253499E1
1.013554646E1,9.343719635E0,-7.885452118E0,-2.371668091E0,1.245432701E1
1.014555846E1,9.214089203E0,-7.690258026E0,-2.399959259E0,1.223925295E1
1.015557046E1,9.127120056E0,-7.547454987E0,-2.485431519E0,1.210147789E1
1.016558246E1,8.948691101E0,-7.598199463E0,-2.693947906E0,1.204446192E1
1.017559546E1,8.516988831E0,-7.766599274E0,-3.011437683E0,1.191335049E1
1.018560746E1,8.410709839E0,-7.760761414E0,-3.335663452E0,1.192040722E1
1.019561946E1,8.383915558E0,-7.644153900E0,-3.614982605E0,1.190761219E1
1.020563246E1,8.153993683E0,-7.482190704E0,-3.720962219E0,1.167545933E1
1.021564446E1,7.816146240E0,-7.331603851E0,-3.650309143E0,1.132118872E1
1.022565646E1,7.488777008E0,-7.143145752E0,-3.577410736E0,1.095007671E1
1.023566846E1,7.288942566E0,-7.001839600E0,-3.628903656E0,1.073887253E1
1.024568146E1,7.202123108E0,-6.948400726E0,-3.763024750E0,1.069164184E1
1.025569346E1,7.117848358E0,-6.816225586E0,-4.018393707E0,1.064294059E1
1.026570546E1,6.995852051E0,-6.625522156E0,-4.243076477E0,1.052820914E1
1.027571846E1,6.790928192E0,-6.513405304E0,-4.350702667E0,1.036676266E1
1.028573046E1,6.577023010E0,-6.428831177E0,-4.462370453E0,1.022251691E1
1.029574246E1,6.384523315E0,-6.253395996E0,-4.596790924E0,1.004975553E1
1.030575446E1,6.203250275E0,-6.048472137E0,-4.748126221E0,9.879728325E0
1.031576746E1,6.006110229E0,-5.870791626E0,-4.795278168E0,9.671310517E0
1.032577946E1,5.821544037E0,-5.735772400E0,-4.716541901E0,9.435848001E0
1.033579146E1,5.699847107E0,-5.721701660E0,-4.599036255E0,9.293936809E0
1.034580346E1,5.633834381E0,-5.787564697E0,-4.556075592E0,9.273285273E0
1.035581646E1,5.550906830E0,-5.809718628E0,-4.576133881E0,9.246966987E0
1.036582846E1,5.558840332E0,-5.795498199E0,-4.522245941E0,9.216247261E0
1.037584046E1,5.563929749E0,-5.784570923E0,-4.389022980E0,9.147791959E0
1.038585346E1,5.483846283E0,-5.863606567E0,-4.284540253E0,9.100095451E0
1.039586546E1,5.463638306E0,-5.990392914E0,-4.263134766E0,9.160265762E0
1.040587746E1,5.408852234E0,-6.092480621E0,-4.341871033E0,9.231784588E0
1.041588946E1,5.263205109E0,-6.057303772E0,-4.393813019E0,9.148652898E0
1.042590246E1,5.135071564E0,-5.846392365E0,-4.317172394E0,8.898721319E0
1.043591446E1,5.021158447E0,-5.659131775E0,-4.173171844E0,8.640206470E0
1.044592646E1,4.941074982E0,-5.580844574E0,-3.991898804E0,8.455489589E0
1.045593946E1,4.932243347E0,-5.530998230E0,-3.729344788E0,8.296202649E0
1.046595146E1,5.083428955E0,-5.581443329E0,-3.379073181E0,8.271148357E0
1.047596346E1,5.397326202E0,-5.863157501E0,-3.007994843E0,8.517968008E0
1.048597546E1,5.749244385E0,-6.216123505E0,-2.661016388E0,8.875528753E0
1.049598846E1,5.977519684E0,-6.448290710E0,-2.348017273E0,9.100790063E0
1.050600046E1,6.126759338E0,-6.435118103E0,-2.000739441E0,9.107737551E0
1.051601246E1,6.234385529E0,-6.276448059E0,-1.567540283E0,8.984350043E0
1.052602546E1,6.313271484E0,-6.135740662E0,-1.109193420E0,8.873275627E0
1.053603746E1,6.351741486E0,-6.122118988E0,-8.110134888E-1,8.859046432E0
1.054604946E1,6.484665070E0,-6.213578796E0,-7.764353943E-1,9.014560136E0
1.055606146E1,6.525679779E0,-6.273005219E0,-8.553213501E-1,9.092121076E0
1.056607446E1,6.512956238E0,-6.378685455E0,-8.563691711E-1,9.156396412E0
1.057608646E1,6.467151489E0,-6.613247681E0,-8.399034119E-1,9.287870101E0
1.058609846E1,6.422095184E0,-6.938820648E0,-8.475375366E-1,9.492568589E0
1.059611146E1,6.431974640E0,-7.213349762E0,-9.642947388E-1,9.712495915E0
1.060612346E1,6.559659119E0,-7.398215332E0,-1.134490814E0,9.952375961E0
1.061613546E1,6.690337372E0,-7.441475372E0,-1.177451477E0,1.007584050E1
1.062614746E1,6.765032043E0,-7.375462646E0,-1.005159760E0,1.005850158E1
1.063616046E1,7.001989288E0,-7.515870667E0,-7.450007629E-1,1.029908695E1
1.064617246E1,7.448211365E0,-7.966134338E0,-5.742059326E-1,1.092084526E1
1.065618446E1,8.028704224E0,-8.540939026E0,-5.610333252E-1,1.173552254E1
1.066619646E1,8.825347595E0,-9.197922821E0,-5.231620789E-1,1.275783065E1
1.067620946E1,9.661359100E0,-1.002031265E1,-4.816983032E-1,1.392769035E1
1.068622146E1,1.025562332E1,-1.075752960E1,-4.555027771E-1,1.486975910E1
1.069623346E1,1.075767929E1,-1.134835098E1,-3.567082214E-1,1.564097102E1
1.070624646E1,1.115121094E1,-1.184247345E1,-2.875520325E-1,1.626887731E1
1.071625846E1,1.148965714E1,-1.218511093E1,-3.971241760E-1,1.675251793E1
1.072627046E1,1.160985718E1,-1.229124023E1,-5.855822754E-1,1.691763213E1
1.073628246E1,1.154189850E1,-1.216879486E1,-8.503816223E-1,1.679339567E1
1.074629546E1,1.132320328E1,-1.189007446E1,-1.099313965E0,1.645591974E1
1.075630746E1,1.096529755E1,-1.156495056E1,-1.346749420E0,1.599373520E1
1.076631946E1,1.043315414E1,-1.128787674E1,-1.531315613E0,1.544706426E1
1.077633246E1,9.878407745E0,-1.091545120E1,-1.592089233E0,1.480759139E1
1.078634446E1,9.264085236E0,-1.037208115E1,-1.658101959E0,1.400545053E1
1.079635646E1,8.639733582E0,-9.949659576E0,-1.766476593E0,1.329515557E1
1.080636846E1,8.120014343E0,-9.601184235E0,-1.810784454E0,1.270418482E1
1.081638146E1,7.599396973E0,-9.129215698E0,-1.856140137E0,1.202242363E1
1.082639346E1,6.989116058E0,-8.636889496E0,-2.036964111E0,1.129569946E1
1.083640546E1,6.458020477E0,-8.220455475E0,-2.358345795E0,1.071651583E1
1.084641846E1,5.986201630E0,-7.942782898E0,-2.757864990E0,1.032125135E1
1.085643046E1,5.402714996E0,-7.677684174E0,-3.177891541E0,9.911365105E0
1.086644246E1,4.807852020E0,-7.310048676E0,-3.538192291E0,9.437746414E0
1.087645446E1,4.100722504E0,-6.960375824E0,-3.798800354E0,8.927129482E0
1.088646746E1,3.410956879E0,-6.746620331E0,-4.004622345E0,8.555028512E0
1.089647946E1,2.958298187E0,-6.654112701E0,-4.346062317E0,8.480389240E0
1.090649146E1,2.635718994E0,-6.602170715E0,-4.735252991E0,8.541562717E0
1.091650446E1,2.402803345E0,-6.518494720E0,-4.998854828E0,8.558784197E0
1.092651646E1,2.242037659E0,-6.547684021E0,-5.249583435E0,8.686600321E0
1.093652846E1,2.145189056E0,-6.697971497E0,-5.532495117E0,8.948360770E0
1.094654046E1,2.163451080E0,-6.766828308E0,-5.657185822E0,9.081532764E0
1.095655346E1,2.326013031E0,-6.832541656E0,-5.654641113E0,9.168910962E0
1.096656546E1,2.691852264E0,-6.966063995E0,-5.598058777E0,9.333294074E0
1.097657746E1,3.241359558E0,-7.308402100E0,-5.514682159E0,9.712408165E0
1.098659046E1,3.909120941E0,-7.831564178E0,-5.409151611E0,1.028948712E1
1.099660246E1,4.751718750E0,-8.337661743E0,-5.042114868E0,1.084058840E1
1.100661446E1,5.709127808E0,-8.631201324E0,-4.595593414E0,1.132304091E1
1.101662583E1,6.669830017E0,-8.756191406E0,-3.894301758E0,1.167574865E1
1.102663883E1,7.537425842E0,-8.870254211E0,-3.081791382E0,1.204124729E1
1.103665083E1,8.393944702E0,-9.055868225E0,-2.300416260E0,1.256021385E1
1.104666283E1,9.294771423E0,-9.391620026E0,-1.619182892E0,1.331228965E1
1.105667583E1,1.006866211E1,-9.720785522E0,-1.024020538E0,1.403282744E1
1.106668783E1,1.065858536E1,-9.955796814E0,-6.614744568E-1,1.460003015E1
1.107669983E1,1.099074463E1,-1.004141876E1,-3.676354980E-1,1.489166593E1
1.108671183E1,1.088835754E1,-9.854607239E0,-3.397933960E-1,1.468962469E1
1.109672483E1,1.052491333E1,-9.388177185E0,-3.023712158E-1,1.410684585E1
1.110673683E1,1.018152740E1,-8.686436462E0,-1.459465027E-1,1.338428104E1
1.111674883E1,9.634864197E0,-7.945926361E0,-1.910028076E-1,1.249018959E1
1.112676183E1,9.056916046E0,-7.341632996E0,-2.962339783E-1,1.166254937E1
1.113677383E1,8.637637939E0,-6.906188507E0,-3.432362366E-1,1.106444938E1
1.114678583E1,8.381221161E0,-6.589147797E0,-3.472778320E-1,1.066688046E1
1.115679783E1,8.277935944E0,-6.519093475E0,-2.453398132E-1,1.053959178E1
1.116681083E1,8.328381042E0,-6.703360291E0,-1.869612122E-1,1.069261074E1
1.117682283E1,8.597970428E0,-7.102580109E0,-2.577639771E-1,1.115518633E1
1.118683483E1,9.028475189E0,-7.711214447E0,-3.227288818E-1,1.187772480E1
1.119684783E1,9.437424774E0,-8.228089600E0,-3.528163147E-1,1.252561073E1
1.120685983E1,9.654772797E0,-8.338110809E0,-3.830534363E-1,1.276265880E1
1.121687183E1,9.677974548E0,-8.115823059E0,-3.508703613E-1,1.263538228E1
1.122688383E1,9.695937195E0,-7.905959473E0,-1.207987976E-1,1.251119441E1
1.123689683E1,9.584269409E0,-7.861501923E0,2.754272461E-2,1.239605547E1
1.124690883E1,9.362131348E0,-7.948471069E0,2.465373230E-1,1.228366706E1
1.125692083E1,9.024732971E0,-8.077802124E0,6.210585022E-1,1.212775354E1
1.126693383E1,8.551417236E0,-8.187074890E0,1.053658905E0,1.188550079E1
1.127694583E1,8.220305786E0,-8.315058746E0,1.494192810E0,1.178754603E1
1.128695783E1,8.247698822E0,-8.622968445E0,1.942360840E0,1.208937080E1
1.129696983E1,8.581804047E0,-8.948242035E0,2.370919647E0,1.262298127E1
1.130698283E1,9.011859741E0,-9.148375854E0,2.569556580E0,1.309614515E1
1.131699483E1,9.326804810E0,-9.084458771E0,2.729873199E0,1.330296534E1
1.132700683E1,9.394763489E0,-8.626860352E0,2.824925537E0,1.306386255E1
1.133701883E1,9.374854889E0,-7.811206512E0,2.573598175E0,1.247101676E1
1.134703183E1,9.338929596E0,-7.610024872E0,2.692600708E0,1.234415583E1
1.135704383E1,9.217382355E0,-7.130721588E0,2.990331573E0,1.203118493E1
1.136705583E1,8.875493317E0,-6.085744629E0,2.805765381E0,1.112128539E1
1.137706883E1,8.319399719E0,-5.092559967E0,3.283571777E0,1.029215343E1
1.138708083E1,8.044421539E0,-4.553381195E0,3.858526154E0,1.001669717E1
1.139709283E1,7.940687256E0,-4.449048157E0,4.076472931E0,9.973273041E0
1.140710583E1,7.774981842E0,-4.597988434E0,3.988306274E0,9.874129188E0
1.141711783E1,7.691455536E0,-4.718038788E0,3.550915833E0,9.696771706E0
1.142712983E1,7.649393005E0,-4.666096802E0,3.318449249E0,9.554987082E0
1.143714183E1,7.419321442E0,-4.474495239E0,3.236569519E0,9.248936185E0
1.144715483E1,7.435936890E0,-4.274062042E0,3.212319946E0,9.158589586E0
1.145716683E1,7.214996338E0,-3.775448914E0,2.938389587E0,8.657038756E0
1.146717883E1,6.844816132E0,-2.995570679E0,2.384092255E0,7.842757643E0
1.147719083E1,6.918013916E0,-2.197430420E0,1.794468384E0,7.477147436E0
1.148720383E1,8.336464233E0,-1.130149841E0,8.177494812E-1,8.452371785E0
1.149721583E1,1.052865555E1,1.434017944E-1,-8.331674194E-1,1.056254324E1
1.150722783E1,1.136212234E1,2.106569366E0,-3.109932861E0,1.196691861E1
1.151724083E1,1.117022141E1,3.475472717E0,-4.962779846E0,1.270755447E1
1.152725283E1,1.094389206E1,3.404819641E0,-4.680766296E0,1.238027234E1
1.153726483E1,1.085737198E1,2.547103271E0,-3.610192566E0,1.172193464E1
1.154727783E1,1.028900391E1,2.396516418E0,-3.156635742E0,1.102593495E1
1.155728983E1,1.005010071E1,2.280807037E0,-2.414029999E0,1.058461836E1
1.156730183E1,1.081396225E1,1.449136505E0,-2.301015015E0,1.115062537E1
1.157731383E1,1.222208405E1,-8.232879639E-2,-3.128943329E0,1.261651310E1
1.158732683E1,1.345581848E1,-1.594035187E0,-3.955374756E0,1.411541670E1
1.159733883E1,1.444226715E1,-2.682571564E0,-4.295168152E0,1.530436997E1
1.160735083E1,1.491004440E1,-3.500919800E0,-4.643493805E0,1.600399632E1
1.161736283E1,1.433209625E1,-4.126468964E0,-5.672154694E0,1.595650551E1
1.162737583E1,1.372211472E1,-4.863536224E0,-6.950496368E0,1.613257006E1
1.163738783E1,1.310180466E1,-5.427413635E0,-7.561376038E0,1.607135687E1
1.164739983E1,1.191926376E1,-5.066963196E0,-7.680677948E0,1.505774812E1
1.165741283E1,9.869276733E0,-3.198099518E0,-7.345674591E0,1.271178190E1
1.166742483E1,8.406967621E0,-1.013692017E0,-6.573729858E0,1.072000934E1
1.167743683E1,7.285050659E0,3.457809448E-1,-5.709576874E0,9.262332085E0
1.168744983E1,6.620432739E0,2.671943665E-1,-5.040318604E0,8.325042589E0
1.169746183E1,6.953190765E0,-1.212179260E0,-4.589007111E0,8.418742581E0
1.170747383E1,7.496560822E0,-2.519261169E0,-4.611610107E0,9.154892068E0
1.171748583E1,8.108937378E0,-3.074606323E0,-4.730313263E0,9.878458028E0
1.172749883E1,8.671018524E0,-3.466192017E0,-4.595144348E0,1.040751656E1
1.173751083E1,9.042246552E0,-3.758384399E0,-4.497547302E0,1.077569523E1
1.174752283E1,9.440717926E0,-4.050127716E0,-4.269272003E0,1.112462911E1
1.175753583E1,1.012629227E1,-4.532574463E0,-3.960314484E0,1.178007288E1
1.176754783E1,1.066636917E1,-5.115312653E0,-3.705993347E0,1.239646085E1
1.177755983E1,1.109747269E1,-5.536237335E0,-3.319197693E0,1.283825912E1
1.178757183E1,1.143651764E1,-5.778283997E0,-2.909948730E0,1.313964624E1
1.179758483E1,1.167542084E1,-5.837261353E0,-2.253414001E0,1.324639372E1
1.180759683E1,1.197584610E1,-5.709277496E0,-1.357077942E0,1.333635632E1
1.181760883E1,1.248508713E1,-5.581593018E0,-3.516188049E-1,1.368046845E1
1.182762183E1,1.284344193E1,-5.692362671E0,3.924838257E-1,1.405386199E1
1.183763383E1,1.299387909E1,-5.950875092E0,7.444020081E-1,1.431111255E1
1.184764583E1,1.289762924E1,-6.162534943E0,5.947132874E-1,1.430661948E1
1.185765783E1,1.291753784E1,-6.228098602E0,2.272274780E-1,1.434237179E1
1.186767083E1,1.243793518E1,-6.172414398E0,-1.968406677E-1,1.388667265E1
1.187768283E1,1.181133820E1,-5.806874542E0,-5.164260864E-1,1.317171962E1
1.188769483E1,1.125359802E1,-5.148543549E0,-5.230123901E-1,1.238646483E1
1.189770783E1,1.042192749E1,-4.103566589E0,-3.369493103E-1,1.120577379E1
1.190771983E1,8.865464172E0,-3.631448364E0,9.789642334E-2,9.580890143E0
1.191773183E1,7.861950989E0,-3.068319397E0,6.255491638E-1,8.462633693E0
1.192774383E1,6.919061737E0,-2.655178528E0,6.875202942E-1,7.442853787E0
1.193775683E1,5.644162903E0,-2.586172028E0,8.925938416E-1,6.272287015E0
1.194776883E1,4.951702881E0,-2.430346069E0,1.196461945E0,5.644241722E0
1.195778083E1,4.652774506E0,-2.127825165E0,1.508263550E0,5.333930021E0
1.196779383E1,4.604275360E0,-1.870210876E0,1.521436157E0,5.197288552E0
1.197780583E1,4.522545319E0,-1.766626282E0,1.371597748E0,5.045360736E0
1.198781783E1,4.462969208E0,-1.767524414E0,1.418001251E0,5.005293623E0
1.199782983E1,4.390669556E0,-1.855092316E0,1.421294403E0,4.973874187E0
1.200784283E1,4.431684265E0,-1.832938385E0,1.368154907E0,4.987117043E0
1.201785433E1,4.376898193E0,-1.769170990E0,1.359323273E0,4.912734834E0
1.202786633E1,4.306993561E0,-1.749861145E0,1.364263000E0,4.844937677E0
1.203787933E1,4.270768890E0,-1.770368500E0,1.363664246E0,4.820088351E0
1.204789133E1,4.771627350E0,-1.996548157E0,1.419348450E0,5.363691092E0
1.205790333E1,5.605842590E0,-2.613864441E0,1.397194519E0,6.341128526E0
1.206791533E1,6.683451691E0,-3.323388977E0,1.309327240E0,7.578111811E0
1.207792833E1,8.641829224E0,-4.332141266E0,1.031804352E0,9.721794099E0
1.208794033E1,1.104852448E1,-5.670508118E0,4.342469788E-1,1.242630781E1
1.209795233E1,1.328861618E1,-7.106771393E0,-1.336720276E-1,1.507021525E1
1.210796533E1,1.455543182E1,-8.290958862E0,-6.891668701E-1,1.676530779E1
1.211797733E1,1.461291229E1,-8.796307983E0,-9.915380859E-1,1.708494623E1
1.212798933E1,1.368274658E1,-8.466244354E0,-6.122268677E-1,1.610185298E1
1.213800133E1,1.275587402E1,-7.783214722E0,-6.930587769E-2,1.494307722E1
1.214801433E1,1.174622360E1,-7.134014740E0,3.622467041E-2,1.374297084E1
1.215802633E1,1.027732819E1,-6.221811676E0,-4.763095093E-1,1.202336417E1
1.216803833E1,8.687484283E0,-5.047803040E0,-1.499282227E0,1.015876695E1
1.217805133E1,7.334447937E0,-3.998634796E0,-2.404150543E0,8.692706518E0
1.218806333E1,6.336622925E0,-3.188220062E0,-2.871628418E0,7.652698023E0
1.219807533E1,5.663772125E0,-2.217788086E0,-3.178789673E0,6.863060721E0
1.220808733E1,5.405708771E0,-1.592388611E0,-3.534150696E0,6.651887698E0
1.221810033E1,5.762117615E0,-1.905088348E0,-3.318748627E0,6.917040803E0
1.222811233E1,6.531517639E0,-2.778222656E0,-2.580334167E0,7.552308800E0
1.223812433E1,7.216942291E0,-3.883973236E0,-2.009870453E0,8.438547468E0
1.224813733E1,7.898624725E0,-4.740043030E0,-1.996697845E0,9.425660866E0
1.225814933E1,8.737929382E0,-5.103936310E0,-2.038161621E0,1.032258100E1
1.226816133E1,9.452543335E0,-4.889132996E0,-1.994302826E0,1.082734689E1
1.227817333E1,1.038869659E1,-3.972289581E0,-1.603166199E0,1.123718129E1
1.228818633E1,1.040740768E1,-2.849324799E0,-1.517095184E0,1.089652992E1
1.229819833E1,9.621541901E0,-2.207758942E0,-1.196911011E0,9.943885763E0
1.230821033E1,9.364825745E0,-1.837129669E0,-1.115330658E0,9.608276075E0
1.231822333E1,9.462123413E0,-1.435365143E0,-1.229842529E0,9.649070692E0
1.232823533E1,9.548643494E0,-1.105451202E0,-8.646020508E-1,9.651225396E0
1.233824733E1,9.986333313E0,-1.267863464E0,-1.990859985E-1,1.006846394E1
1.234826033E1,1.096095657E1,-2.176324310E0,4.177812195E-1,1.118273212E1
1.235827233E1,1.209889023E1,-3.291804657E0,1.022673340E0,1.258034115E1
1.236828433E1,1.240859619E1,-3.945794678E0,1.536854095E0,1.311123471E1
1.237829633E1,1.230935257E1,-4.103566589E0,2.029030609E0,1.313302648E1
1.238830933E1,1.215891541E1,-3.860771484E0,2.547402649E0,1.300899845E1
1.239832133E1,1.184501816E1,-3.516337738E0,2.833607483E0,1.267668796E1
1.240833333E1,1.150971542E1,-3.457510071E0,2.944975891E0,1.237339113E1
1.241834633E1,1.127709915E1,-3.866609344E0,2.920277252E0,1.227402348E1
1.242835833E1,1.114312775E1,-4.378544769E0,2.876119080E0,1.231312354E1
1.243837033E1,1.130164810E1,-4.756059723E0,2.902613983E0,1.260049689E1
1.244838233E1,1.162737076E1,-5.125790863E0,2.895728302E0,1.303283258E1
1.245839533E1,1.196955917E1,-5.378315735E0,2.786006470E0,1.341485963E1
1.246840733E1,1.218466187E1,-5.520819397E0,2.773881683E0,1.366161964E1
1.247841933E1,1.160821060E1,-5.820346527E0,2.989283752E0,1.332526939E1
1.248843233E1,1.068897217E1,-5.946085052E0,3.414549408E0,1.269918112E1
1.249844433E1,9.719138947E0,-5.755231934E0,3.769012299E0,1.190755265E1
1.250845633E1,8.639434204E0,-5.396877136E0,3.938908997E0,1.092158918E1
1.251846833E1,7.652087402E0,-4.957690430E0,4.061504059E0,9.981430320E0
1.252848133E1,6.718179474E0,-4.482279053E0,4.099974060E0,9.057292545E0
1.253849333E1,5.821843414E0,-4.027973785E0,4.087250519E0,8.174597871E0
1.254850533E1,5.155129852E0,-3.658841400E0,4.048930206E0,7.507084654E0
1.255851833E1,4.766088867E0,-3.436553650E0,4.065545654E0,7.145219769E0
1.256853033E1,4.624034271E0,-3.353326721E0,4.082759857E0,7.021069797E0
1.257854233E1,4.670138397E0,-3.329226837E0,4.032165070E0,7.010870069E0
1.258855433E1,4.666545868E0,-3.102448425E0,3.858077087E0,6.803425268E0
1.259856733E1,4.492906952E0,-2.770289154E0,3.844006348E0,6.529709004E0
1.260857933E1,4.331542511E0,-2.529589691E0,3.788471832E0,6.285984677E0
1.261859133E1,4.157753906E0,-2.360291748E0,3.415297852E0,5.875555641E0
1.262860433E1,4.257895660E0,-2.392325134E0,2.802172852E0,5.630725326E0
1.263861633E1,4.743186493E0,-2.502196655E0,2.046394501E0,5.739907374E0
1.264862833E1,5.593418427E0,-2.731519775E0,1.001267853E0,6.304765443E0
1.265864133E1,7.087311859E0,-2.612666931E0,3.182382202E-1,7.560244272E0
1.266865333E1,8.384364624E0,-2.437980194E0,-3.185375977E-1,8.737435767E0
1.267866533E1,9.505982208E0,-2.328258362E0,-8.080197144E-1,9.820253592E0
1.268867733E1,1.105735611E1,-2.116748199E0,-1.354682922E0,1.133935240E1
1.269869033E1,1.268776566E1,-1.782942352E0,-1.762434998E0,1.293307612E1
1.270870233E1,1.443747711E1,-1.973945160E0,-1.063688049E0,1.461056594E1
1.271871433E1,1.537003784E1,-2.984344025E0,-2.981799316E-1,1.565992605E1
1.272872733E1,1.500524643E1,-4.554429016E0,-8.827143860E-1,1.570603160E1
1.273873933E1,1.457668762E1,-5.637576599E0,-2.013462982E0,1.575804953E1
1.274875133E1,1.417028275E1,-5.669011230E0,-2.696791992E0,1.549862215E1
1.275876333E1,1.356808502E1,-4.946014709E0,-2.739902344E0,1.469908356E1
1.276877633E1,1.290361679E1,-3.885919189E0,-2.131118317E0,1.364350979E1
1.277878833E1,1.214963470E1,-2.943778381E0,-1.765428772E0,1.262522053E1
1.278880033E1,1.094464050E1,-2.336491241E0,-1.581611023E0,1.130247055E1
1.279881333E1,9.588460693E0,-1.737736359E0,-1.353784790E0,9.838243714E0
1.280882533E1,8.532257080E0,-1.148561554E0,-1.246607666E0,8.699001966E0
1.281883733E1,8.031548309E0,-6.179150391E-1,-1.215921478E0,8.146536214E0
1.282885033E1,7.703879700E0,-2.490820312E-1,-1.650168457E0,7.882566855E0
1.283886233E1,7.270081787E0,4.460723877E-2,-2.225122833E0,7.603107958E0
1.284887433E1,6.810387726E0,4.218228149E-1,-2.514920197E0,7.272148174E0
1.285888633E1,6.994953918E0,8.734336853E-1,-2.522554321E0,7.487025246E0
1.286889933E1,7.166646881E0,1.251397705E0,-2.756068726E0,7.779636145E0
1.287891133E1,7.597600708E0,1.218615875E0,-2.844385071E0,8.203602111E0
1.288892333E1,8.167465668E0,7.717950439E-1,-2.675536194E0,8.629116812E0
1.289893633E1,8.487500153E0,7.214996338E-2,-2.523302765E0,8.854937679E0
1.290894833E1,8.938063202E0,-7.009922791E-1,-2.421963501E0,9.286887055E0
1.291896033E1,9.729617157E0,-1.537003784E0,-2.171683960E0,1.008682516E1
1.292897233E1,1.070439011E1,-2.483186188E0,-1.442699890E0,1.108294023E1
1.293898533E1,1.219005066E1,-3.453019409E0,-4.760101318E-1,1.267861443E1
1.294899733E1,1.352497467E1,-4.510270844E0,1.829196167E-1,1.425836395E1
1.295900933E1,1.430305664E1,-5.820795593E0,1.134341125E0,1.548372760E1
1.296902233E1,1.428913559E1,-6.579717407E0,2.042053528E0,1.586322980E1
1.297903433E1,1.416010391E1,-6.561754761E0,2.636317749E0,1.582767638E1
1.298904633E1,1.407642792E1,-6.189927979E0,2.921025696E0,1.565226573E1
1.299905833E1,1.395383286E1,-5.910010071E0,2.939287720E0,1.543622631E1
1.300907133E1,1.372376129E1,-5.858217773E0,2.874173126E0,1.519609195E1
1.301908783E1,1.297187485E1,-6.086493073E0,2.810854797E0,1.460191219E1
1.302909983E1,1.204724762E1,-6.103407898E0,2.803969116E0,1.379311444E1
1.303911283E1,1.108669510E1,-5.807922363E0,2.740501099E0,1.281238138E1
1.304912483E1,9.999356232E0,-5.420228577E0,2.870430908E0,1.173053181E1
1.305913683E1,9.023535461E0,-4.918471985E0,3.064876556E0,1.072422618E1
1.306914983E1,8.398285675E0,-4.359234924E0,3.183430023E0,9.983404135E0
1.307916183E1,7.947123871E0,-3.855532379E0,3.112776947E0,9.365430480E0
1.308917383E1,7.352709961E0,-3.596720581E0,2.773432617E0,8.642376478E0
1.309918583E1,6.784491577E0,-3.625760193E0,2.497256927E0,8.087753402E0
1.310919883E1,6.197711792E0,-3.851341095E0,2.674488373E0,7.771573055E0
1.311921083E1,5.425018616E0,-3.943699036E0,2.922372894E0,7.315999754E0
1.312922283E1,4.837191010E0,-3.761228485E0,3.028951263E0,6.835188537E0
1.313923583E1,4.823120270E0,-3.517984314E0,3.049159241E0,6.703437539E0
1.314924783E1,4.774621124E0,-3.279380493E0,2.870580597E0,6.464640459E0
1.315925983E1,4.780009918E0,-3.182382202E0,2.770139465E0,6.375713604E0
1.316927183E1,4.898563385E0,-3.344794464E0,2.850073242E0,6.580766728E0
1.317928483E1,4.930297394E0,-3.747008057E0,2.795736237E0,6.794412622E0
1.318929683E1,5.014123077E0,-4.268523560E0,2.585124207E0,7.074220153E0
1.319930883E1,5.144951019E0,-4.852309570E0,2.561922455E0,7.521893101E0
1.320932183E1,5.410947876E0,-5.522016907E0,2.238894196E0,8.048830651E0
1.321933383E1,5.777086487E0,-5.891448669E0,1.764231262E0,8.437796374E0
1.322934583E1,6.220464478E0,-5.811065826E0,1.414857788E0,8.629280788E0
1.323935883E1,7.004384308E0,-5.725443878E0,8.310717773E-1,9.084755772E0
1.324937083E1,8.591084747E0,-6.205345917E0,3.767665100E-1,1.060448057E1
1.325938283E1,1.029888336E1,-7.096293182E0,2.601589966E-1,1.250967858E1
1.326939483E1,1.169353317E1,-7.623047791E0,-7.095245361E-1,1.397687378E1
1.327940783E1,1.248014740E1,-7.934100952E0,-2.245929565E0,1.495821636E1
1.328941983E1,1.238554413E1,-7.892337799E0,-3.831881561E0,1.517807681E1
1.329943183E1,1.213601303E1,-7.378157043E0,-5.221741333E0,1.513230307E1
1.330944483E1,1.161524597E1,-6.608158264E0,-5.973029022E0,1.463758075E1
1.331945683E1,1.090602081E1,-5.643863525E0,-5.460794220E0,1.343929905E1
1.332946883E1,1.009036697E1,-4.910987549E0,-3.865860901E0,1.186921164E1
1.333948083E1,8.927884369E0,-4.170776825E0,-2.071093140E0,1.006935576E1
1.334949383E1,7.500901794E0,-3.232976990E0,-9.195378113E-1,8.219563111E0
1.335950583E1,7.321425018E0,-1.689087524E0,3.414399719E-1,7.521493350E0
1.336951783E1,6.433022461E0,-1.356179810E0,7.710466003E-1,6.619479928E0
1.337953083E1,5.210664368E0,-1.728904724E0,1.219663696E0,5.623852259E0
1.338954283E1,4.635560303E0,-1.363813934E0,1.043330383E0,4.943373955E0
1.339955483E1,4.599784698E0,-1.263073425E0,7.036866760E-1,4.821674884E0
1.340956783E1,4.944817200E0,-2.099833374E0,2.984793091E-1,5.380483922E0
1.341957983E1,5.423671417E0,-2.983296204E0,-2.282752991E-1,6.194221298E0
1.342959183E1,5.940396881E0,-3.765419769E0,-6.918612671E-1,7.067204055E0
1.343960383E1,6.513854370E0,-4.402644653E0,-1.072968750E0,7.935038792E0
1.344961683E1,7.214696960E0,-5.129533081E0,-1.551224213E0,8.987227516E0
1.345962883E1,7.841892700E0,-6.153104553E0,-2.316283264E0,1.023333499E1
1.346964083E1,8.568032684E0,-6.820716248E0,-2.994522858E0,1.135343654E1
1.347965383E1,9.922416229E0,-6.737489319E0,-3.492836609E0,1.249191794E1
1.348966583E1,1.081066910E1,-6.649472351E0,-3.921395416E0,1.328395238E1
1.349967783E1,1.108744354E1,-6.836583252E0,-3.912414093E0,1.360063450E1
1.350968983E1,1.128114075E1,-6.865473175E0,-3.457659760E0,1.365116367E1
1.351970283E1,1.152992340E1,-6.495891724E0,-2.747835846E0,1.351615126E1
1.352971483E1,1.201057388E1,-6.243666229E0,-1.946252747E0,1.367571398E1
1.353972683E1,1.251068390E1,-6.320606232E0,-9.708810425E-1,1.405026280E1
1.354973983E1,1.319416260E1,-6.468049622E0,-3.966751099E-2,1.469432428E1
1.355975183E1,1.369277573E1,-6.436016235E0,5.649252319E-1,1.514046078E1
1.356976383E1,1.351644241E1,-6.238726501E0,6.830296326E-1,1.490243112E1
1.357977583E1,1.293924271E1,-5.893694000E0,7.438032532E-1,1.423772714E1
1.358978883E1,1.215472412E1,-5.267546082E0,1.167122955E0,1.329836592E1
1.359980083E1,1.126841721E1,-4.282743988E0,1.896705780E0,1.220313956E1
1.360981283E1,9.598938904E0,-3.692671051E0,2.202370148E0,1.051788390E1
1.361982583E1,8.208779755E0,-3.412004700E0,2.562072144E0,9.251489329E0
1.362983783E1,7.316784668E0,-3.064726868E0,2.844834137E0,8.427394017E0
1.363984983E1,6.155798950E0,-2.968926086E0,2.762655029E0,7.371610790E0
1.364986283E1,5.317841492E0,-2.837798767E0,2.801574097E0,6.646905851E0
1.365987483E1,4.603227539E0,-2.780767365E0,2.923570404E0,6.121244548E0
1.366988683E1,4.128414917E0,-2.847528534E0,3.011587372E0,5.849947605E0
1.367989883E1,3.725602570E0,-2.961741028E0,3.105442200E0,5.682939000E0
1.368991183E1,3.467838593E0,-3.008443909E0,3.231779480E0,5.614359969E0
1.369992383E1,3.318299561E0,-3.022065582E0,3.482208710E0,5.680648718E0
1.370993583E1,3.360362091E0,-3.048560486E0,3.764222260E0,5.895347627E0
1.371994883E1,3.603905640E0,-3.093018036E0,3.979474640E0,6.196056394E0
1.372996083E1,3.727249146E0,-3.314856720E0,4.082460480E0,6.445707474E0
1.373997283E1,4.085903320E0,-3.484903107E0,4.171375580E0,6.799965429E0
1.374998583E1,4.780458984E0,-3.661236420E0,4.265380096E0,7.379085823E0
1.375999783E1,5.543422394E0,-4.076622620E0,3.924688568E0,7.921588488E0
1.377000983E1,6.614295502E0,-4.606820068E0,3.494932251E0,8.785570418E0
1.378002183E1,7.830516357E0,-4.992118835E0,3.149450684E0,9.805981669E0
1.379003483E1,9.192384338E0,-5.499413910E0,2.544408875E0,1.100988191E1
1.380004683E1,1.065544189E1,-6.252647552E0,1.542691956E0,1.245045950E1
1.381005883E1,1.189366699E1,-6.722221069E0,-1.029858398E-1,1.366229032E1
1.382007183E1,1.270991959E1,-6.633305969E0,-2.042053528E0,1.448146355E1
1.383008383E1,1.339998459E1,-6.337521057E0,-4.172124023E0,1.539903825E1
1.384009583E1,1.386521713E1,-5.738017731E0,-5.942642212E0,1.613951951E1
1.385010783E1,1.433314407E1,-4.261338501E0,-7.229067078E0,1.660895649E1
1.386012083E1,1.424482773E1,-3.377725983E0,-7.566315765E0,1.647948070E1
1.387013283E1,1.378513367E1,-2.571203156E0,-7.059469757E0,1.569958946E1
1.388014483E1,1.297471893E1,-2.449356537E0,-5.975873108E0,1.449323077E1
1.389015783E1,1.219409225E1,-2.853815460E0,-5.264402618E0,1.358506840E1
1.390016983E1,1.123832977E1,-3.081641693E0,-4.795727234E0,1.260141148E1
1.391018183E1,1.004770569E1,-3.133134613E0,-4.332290955E0,1.138163727E1
1.392019483E1,8.401429138E0,-2.919828186E0,-3.082240448E0,9.413267997E0
1.393020683E1,7.292385406E0,-2.240989838E0,-1.425036621E0,7.760905214E0
1.394021883E1,7.024442596E0,-1.724264374E0,-7.912545776E-1,7.276122953E0
1.395023083E1,7.708969116E0,-1.970951385E0,-9.732760620E-1,8.016241045E0
1.396024383E1,8.502918091E0,-2.933898926E0,-1.711840210E0,9.156297061E0
1.397025583E1,9.024433594E0,-3.559298401E0,-2.827170868E0,1.010454858E1
1.398026783E1,9.382489014E0,-3.550317078E0,-3.883075104E0,1.075704995E1
1.399028083E1,9.194479980E0,-3.578757935E0,-4.915777588E0,1.102319553E1
1.400029283E1,9.412576447E0,-3.584595795E0,-5.895639954E0,1.167066805E1
1.401030483E1,9.689799957E0,-3.529210968E0,-6.399192810E0,1.213660669E1
1.402031333E1,1.010758118E1,-3.809128876E0,-6.171815643E0,1.244041673E1
1.403032533E1,1.093101883E1,-4.870571594E0,-5.582940216E0,1.320525887E1
1.404033733E1,1.169817352E1,-5.516179047E0,-5.466931458E0,1.404146839E1
1.405034933E1,1.308009979E1,-6.038892059E0,-5.233267365E0,1.532789337E1
1.406036233E1,1.537243286E1,-6.563251648E0,-5.080435181E0,1.746993949E1
1.407037433E1,1.702020630E1,-7.387437744E0,-3.730991364E0,1.892569564E1
1.408038633E1,1.843087280E1,-7.808212738E0,-2.132465515E0,2.012989487E1
1.409039933E1,1.888742340E1,-7.628286896E0,-1.012793884E0,2.039488355E1
1.410041133E1,1.876363083E1,-7.236850891E0,-6.406677246E-2,2.011094123E1
1.411042333E1,1.861648682E1,-6.751709747E0,6.161187744E-1,1.981259115E1
1.412043633E1,1.827519653E1,-6.154751129E0,1.089883575E0,1.931454416E1
1.413044833E1,1.847293533E1,-5.439239044E0,1.386117554E0,1.930688952E1
1.414046033E1,1.939995758E1,-4.899012451E0,1.338217163E0,2.005366556E1
1.415047233E1,1.999047958E1,-4.578678589E0,1.377884674E0,2.055437028E1
1.416048533E1,1.943258972E1,-3.932173004E0,1.205293579E0,1.986303754E1
1.417049733E1,1.814242264E1,-3.674409027E0,9.431886292E-1,1.853478852E1
1.418050933E1,1.697140778E1,-3.516188049E0,9.746232605E-1,1.735920939E1
1.419052233E1,1.613464783E1,-3.023712158E0,7.270381165E-1,1.643162439E1
1.420053433E1,1.490031464E1,-2.546055450E0,9.000782776E-1,1.514304842E1
1.421054633E1,1.395098877E1,-2.132914581E0,1.347198486E0,1.417724783E1
1.422055833E1,1.299687286E1,-2.060764618E0,1.002016296E0,1.319732896E1
1.423057133E1,1.272713379E1,-2.154918823E0,8.173004150E-1,1.293412500E1
1.424058333E1,1.175011551E1,-2.136507111E0,2.047741699E-1,1.194453053E1
1.425059533E1,1.001088226E1,-2.269879761E0,-3.502716064E-2,1.026505454E1
1.426060833E1,8.314310303E0,-2.398612061E0,-1.312770081E-1,8.654382085E0
1.427062033E1,7.008874969E0,-2.047442322E0,-7.005432129E-2,7.302140509E0
1.428063233E1,6.036796417E0,-1.531315613E0,5.312452698E-1,6.250604773E0
1.429064533E1,5.071753235E0,-1.339714050E0,1.425186310E0,5.435868894E0
1.430065733E1,4.255350952E0,-1.419348450E0,1.974843292E0,4.901282258E0
1.431066933E1,3.507805481E0,-1.711391144E0,2.098336487E0,4.431317519E0
1.432068133E1,2.756517792E0,-1.963466949E0,1.997595978E0,3.929883266E0
1.433069433E1,1.928739166E0,-1.954934692E0,1.837728424E0,3.304398611E0
1.434070633E1,1.197809143E0,-1.652413788E0,1.786085815E0,2.712069433E0
1.435071833E1,3.535647583E-1,-1.263821869E0,1.675316162E0,2.128130165E0
1.436073133E1,-1.666035461E-1,-1.060394897E0,1.367256775E0,1.738270741E0
1.437074333E1,-3.911366272E-1,-9.746232605E-1,1.206191711E0,1.599305101E0
1.438075533E1,-2.893482971E-1,-9.092092896E-1,1.008153534E0,1.388076913E0
1.439076833E1,-1.475930786E-1,-9.602531433E-1,5.809419250E-1,1.131973205E0
1.440078033E1,1.811233521E-2,-1.093176727E0,1.547781372E-1,1.104228095E0
1.441079233E1,1.324745178E-1,-1.320104828E0,-2.200424194E-1,1.344858699E0
1.442080433E1,2.350112915E-1,-1.491049347E0,-6.310876465E-1,1.636071539E0
1.443081733E1,6.893165588E-1,-1.660047913E0,-1.082848206E0,2.098446241E0
1.444082933E1,1.212478638E0,-1.981878662E0,-1.782642975E0,2.928440447E0
1.445084133E1,1.772015076E0,-2.112856293E0,-2.761008453E0,3.902225880E0
1.446085433E1,2.424508209E0,-1.869462433E0,-3.880231018E0,4.942602816E0
1.447086633E1,3.162024536E0,-1.657353516E0,-4.901257782E0,6.063624963E0
1.448087833E1,3.953578491E0,-1.393152924E0,-5.707032166E0,7.081092719E0
1.449089133E1,4.811594238E0,-1.039737854E0,-6.557413788E0,8.199522517E0
1.450090333E1,5.572761383E0,-9.318122864E-1,-7.221283264E0,9.169017153E0
1.451091533E1,5.831573181E0,-8.836125183E-1,-7.788154449E0,9.769512095E0
1.452092733E1,6.010002136E0,-8.153544617E-1,-8.277786255E0,1.026190401E1
1.453094033E1,6.453380127E0,-7.846682739E-1,-8.720864868E0,1.087728383E1
1.454095233E1,6.957531738E0,-9.126521301E-1,-9.173224182E0,1.154938196E1
1.455096433E1,7.677085419E0,-1.300495605E0,-9.644593964E0,1.239544763E1
1.456097733E1,8.918603668E0,-1.326391754E0,-1.074345886E1,1.402578749E1
1.457098933E1,1.055305481E1,-1.082698517E0,-1.218346436E1,1.615475180E1
1.458100133E1,1.168919220E1,-7.146139526E-1,-1.318278625E1,1.763331338E1
1.459101433E1,1.260887970E1,-2.842588806E-1,-1.363035553E1,1.857017077E1
1.460102633E1,1.342019257E1,-8.801696777E-2,-1.388108414E1,1.930786918E1
1.461103833E1,1.388213196E1,4.879852295E-2,-1.399110535E1,1.970956615E1
1.462105033E1,1.416669022E1,3.152444458E-1,-1.396490982E1,1.989505459E1
1.463106333E1,1.424258240E1,6.577322388E-1,-1.389231079E1,1.990678438E1
1.464107533E1,1.419947205E1,1.201701050E0,-1.386566620E1,1.988280139E1
1.465108733E1,1.404469391E1,1.863774261E0,-1.360909973E1,1.964522021E1
1.466110033E1,1.329984283E1,2.184257813E0,-1.296663574E1,1.870268548E1
1.467111233E1,1.226773911E1,2.181713104E0,-1.209784241E1,1.736706900E1
1.468112433E1,1.120584732E1,2.194436646E0,-1.105960144E1,1.589658298E1
1.469113733E1,1.005084915E1,2.126178589E0,-9.887389069E0,1.425835428E1
1.470114933E1,8.946595459E0,1.944306793E0,-8.791068878E0,1.269270622E1
1.471116133E1,7.962841187E0,1.873953094E0,-7.825726318E0,1.132080087E1
1.472117333E1,7.078031158E0,1.790726166E0,-6.986870728E0,1.010552264E1
1.473118633E1,6.117927704E0,1.617536316E0,-6.172713776E0,8.840127741E0
1.474119833E1,5.300477600E0,1.557810516E0,-5.435197449E0,7.750045658E0
1.475121033E1,4.728367310E0,1.552421722E0,-4.876259766E0,6.967451465E0
1.476122333E1,4.126319275E0,1.582209778E0,-4.368665314E0,6.214107753E0
1.477123533E1,3.650309143E0,1.676813049E0,-3.948489075E0,5.632674748E0
1.478124733E1,3.184028778E0,1.622476044E0,-3.626209259E0,5.091155209E0
1.479126033E1,2.712658997E0,1.419348450E0,-3.322790222E0,4.518185887E0
1.480127233E1,2.316133575E0,1.344953156E0,-3.081192627E0,4.082538638E0
1.481128433E1,2.006128235E0,1.400188293E0,-2.880609741E0,3.779284355E0
1.482129633E1,1.711391144E0,1.467548218E0,-2.703078918E0,3.519828555E0
1.483130933E1,1.571731567E0,1.568887482E0,-2.650538177E0,3.457904088E0
1.484132133E1,1.483564911E0,1.670077057E0,-2.650987244E0,3.466677889E0
1.485133333E1,1.289718018E0,1.668580170E0,-2.593207397E0,3.342492626E0
1.486134633E1,1.178798676E0,1.525926819E0,-2.677332458E0,3.299413291E0
1.487135833E1,1.036444702E0,1.574575653E0,-2.763702850E0,3.345378835E0
1.488137033E1,8.752299500E-1,1.715881805E0,-2.801723785E0,3.399990295E0
1.489138333E1,1.047371979E0,1.743723907E0,-3.158881073E0,3.757138640E0
1.490139533E1,1.746418304E0,1.970652008E0,-3.859873352E0,4.672479912E0
1.491140733E1,2.080074463E0,2.307152252E0,-4.395758972E0,5.382597721E0
1.492141933E1,1.777703247E0,2.321222992E0,-4.374503174E0,5.261614109E0
1.493143233E1,1.566941528E0,2.329755249E0,-4.193230133E0,5.046409042E0
1.494144433E1,1.590742035E0,2.355651398E0,-4.208498383E0,5.078485243E0
1.495145633E1,1.733844452E0,2.373763733E0,-4.101920013E0,5.046456048E0
1.496146933E1,2.102078705E0,2.309846649E0,-4.022135925E0,5.092318119E0
1.497148133E1,2.854863281E0,2.345173187E0,-4.647685089E0,5.937260170E0
1.498149333E1,3.860771484E0,2.869383087E0,-5.737119598E0,7.486885670E0
1.499150533E1,5.345833282E0,3.680396576E0,-6.987619171E0,9.536774828E0
1.500151833E1,7.023394775E0,4.879403229E0,-8.336015167E0,1.194260436E1
1.501153033E1,8.708440704E0,6.311175842E0,-9.395212555E0,1.428068272E1
1.502154271E1,1.044572800E1,7.522906036E0,-9.947114868E0,1.626814196E1
1.503155571E1,1.226414658E1,8.357720032E0,-1.023092468E1,1.802588681E1
1.504156771E1,1.405217834E1,9.046737213E0,-1.024200165E1,1.960116752E1
1.505157971E1,1.559576843E1,9.594448242E0,-9.715696106E0,2.072863191E1
1.506159271E1,1.736224503E1,1.010428802E1,-8.471034393E0,2.180143602E1
1.507160471E1,1.854298965E1,1.003647903E1,-6.730603638E0,2.213310647E1
1.508161671E1,1.907917465E1,9.123078461E0,-4.729265442E0,2.167051955E1
1.509162971E1,1.899355270E1,8.284971313E0,-2.687511292E0,2.089541842E1
1.510164171E1,1.853655304E1,7.386389923E0,-7.704478455E-1,1.996887940E1
1.511165371E1,1.827699280E1,6.418802032E0,7.274871826E-1,1.938501284E1
1.512166571E1,1.817550385E1,5.594017181E0,1.487456818E0,1.907497041E1
1.513167871E1,1.827220276E1,5.264252930E0,1.477577362E0,1.907272889E1
1.514169071E1,1.776400955E1,5.532794495E0,7.128176880E-1,1.861934369E1
1.515170271E1,1.765907776E1,6.077062683E0,1.068178711E0,1.870600770E1
1.516171571E1,1.719549179E1,6.942712555E0,1.139879608E0,1.857916901E1
1.517172771E1,1.631696869E1,7.564519501E0,5.974076843E-1,1.799506372E1
1.518173971E1,1.556433380E1,7.689359894E0,6.526428223E-2,1.736027078E1
1.519175271E1,1.472098755E1,7.502248993E0,-6.227050781E-1,1.653417600E1
1.520176471E1,1.375010651E1,7.000193024E0,-1.246757355E0,1.547974597E1
1.521177671E1,1.248643433E1,6.283633118E0,-1.793420563E0,1.409295727E1
1.522178871E1,1.103265747E1,5.416336670E0,-2.038910065E0,1.245846652E1
1.523180171E1,9.482630768E0,4.491709442E0,-2.173180847E0,1.071533737E1
1.524181371E1,8.077652435E0,3.641028442E0,-2.232756958E0,9.137327871E0
1.525182571E1,6.963519287E0,2.864293671E0,-2.203717346E0,7.845454049E0
1.526183871E1,5.905818787E0,2.106868744E0,-2.127076721E0,6.621332707E0
1.527185071E1,4.800816650E0,1.433119812E0,-2.176024933E0,5.462303307E0
1.528186271E1,3.937112732E0,7.939489746E-1,-2.214045868E0,4.586197853E0
1.529187571E1,3.113675079E0,2.116598511E-1,-2.193239136E0,3.814455439E0
1.530188771E1,2.378853149E0,-2.583627319E-1,-2.028132477E0,3.136720413E0
1.531189971E1,1.841620331E0,-5.685177612E-1,-1.856439514E0,2.676031681E0
1.532191171E1,1.179397430E0,-7.107220459E-1,-1.729952545E0,2.211072123E0
1.533192471E1,5.884263611E-1,-7.316784668E-1,-1.599124603E0,1.854399757E0
1.534193671E1,1.568737793E-1,-6.840774536E-1,-1.394649811E0,1.561287751E0
1.535194871E1,-8.247848511E-2,-6.430627441E-1,-1.277144165E0,1.432281261E0
1.536196171E1,-1.469943237E-1,-7.584727478E-1,-1.346150665E0,1.552098532E0
1.537197371E1,-9.385482788E-2,-1.019529877E0,-1.609303436E0,1.907382355E0
1.538198571E1,-8.008346558E-2,-1.258732452E0,-1.822460175E0,2.216344250E0
1.539199871E1,-2.011816406E-1,-1.383722534E0,-1.877994690E0,2.341372708E0
1.540201071E1,-1.416055298E-1,-1.468596039E0,-1.961371307E0,2.454343875E0
1.541202271E1,-3.248245239E-2,-1.717977448E0,-2.172582092E0,2.769948477E0
1.542203471E1,1.338217163E-1,-2.188598785E0,-2.589165802E0,3.392882616E0
1.543204771E1,7.084767151E-1,-2.502795410E0,-3.175047455E0,4.104491499E0
1.544205971E1,1.596879272E0,-2.333497467E0,-3.751349030E0,4.697643386E0
1.545207171E1,2.332000580E0,-1.978136444E0,-4.061803436E0,5.084240125E0
1.546208471E1,2.879561920E0,-1.923200684E0,-4.087998962E0,5.357453988E0
1.547209671E1,3.777993622E0,-1.949994965E0,-4.362677765E0,6.091688883E0
1.548210871E1,4.854854279E0,-1.873504028E0,-4.788392487E0,7.071656808E0
1.549212171E1,5.769152985E0,-1.751058655E0,-5.110971680E0,7.903882849E0
1.550213371E1,6.831044769E0,-1.380130005E0,-5.616171112E0,8.950380407E0
1.551214571E1,7.939340057E0,-8.226892090E-1,-6.171965332E0,1.008975194E1
1.552215871E1,8.644673309E0,-2.189945984E-1,-6.688990173E0,1.093256259E1
1.553217071E1,8.978928223E0,2.887495422E-1,-6.971752167E0,1.137144919E1
1.554218271E1,9.202114105E0,7.083270264E-1,-7.079827423E0,1.163205001E1
1.555219471E1,9.376950531E0,1.171014862E0,-7.204667816E0,1.188300111E1
1.556220771E1,9.728269958E0,1.850302277E0,-7.361541595E0,1.233917135E1
1.557221971E1,1.007973907E1,2.445015564E0,-7.398065643E0,1.274011837E1
1.558223171E1,1.030921188E1,2.459535370E0,-7.396419067E0,1.292424771E1
1.559224471E1,1.055290512E1,2.040706329E0,-7.465724945E0,1.308683834E1
1.560225671E1,1.084554657E1,1.960622864E0,-7.320227509E0,1.323085988E1
1.561226871E1,1.128173950E1,2.208507385E0,-7.023095398E0,1.347141492E1
1.562228171E1,1.195249466E1,1.758842468E0,-6.780300293E0,1.385381274E1
1.563229371E1,1.278506332E1,9.861492920E-1,-6.512507172E0,1.438204034E1
1.564230571E1,1.375789032E1,7.412585449E-1,-6.177803192E0,1.509947888E1
1.565231771E1,1.541434570E1,6.587800598E-1,-5.955964508E0,1.653812438E1
1.566233071E1,1.657054138E1,8.885522461E-1,-5.914800110E0,1.761695851E1
1.567234271E1,1.718740860E1,1.596430206E0,-5.872737579E0,1.823306476E1
1.568235471E1,1.828477661E1,2.681673431E0,-6.100114746E0,1.946113635E1
1.569236771E1,1.949201614E1,3.414699097E0,-6.781348114E0,2.091854549E1
1.570237971E1,2.014540741E1,3.750450897E0,-7.434440002E0,2.179849123E1
1.571239171E1,2.044747925E1,3.928580475E0,-8.144413605E0,2.235765250E1
1.572240471E1,2.017115387E1,4.227209473E0,-8.987610168E0,2.248381384E1
1.573241671E1,1.971580078E1,4.880001984E0,-9.624086609E0,2.247554811E1
1.574242871E1,1.879686172E1,5.681435394E0,-9.848619690E0,2.196806839E1
1.575244071E1,1.760474075E1,6.164929962E0,-9.471703491E0,2.092000061E1
1.576245371E1,1.646965118E1,6.508465576E0,-8.709338837E0,1.973479458E1
1.577246571E1,1.515583328E1,6.970554657E0,-8.039481812E0,1.851813118E1
1.578247771E1,1.403077286E1,6.579268341E0,-6.889123993E0,1.695905034E1
1.579249071E1,1.310629532E1,5.698050842E0,-5.434898071E0,1.528989462E1
1.580250271E1,1.228525269E1,5.140759735E0,-3.699856110E0,1.382185875E1
1.581251471E1,1.155866364E1,4.804259491E0,-2.001787262E0,1.267638618E1
1.582252771E1,1.063149170E1,4.283941498E0,-8.105644226E-1,1.149076956E1
1.583253971E1,9.430838470E0,3.808829498E0,2.989283752E-1,1.017532577E1
1.584255171E1,8.300089874E0,3.559597778E0,1.183289337E0,9.108369883E0
1.585256471E1,7.295977936E0,3.403322754E0,1.861079865E0,8.263021122E0
1.586257671E1,6.359375610E0,3.308569794E0,2.426304474E0,7.568041070E0
1.587258871E1,5.513035583E0,3.316952362E0,2.772684174E0,7.005962592E0
1.588260071E1,5.111420746E0,3.397335205E0,2.846480713E0,6.765423932E0
1.589261371E1,5.112917633E0,3.570075989E0,2.706222382E0,6.797867965E0
1.590262571E1,5.335055695E0,4.091441803E0,2.279160461E0,7.099104711E0
1.591263771E1,5.160967712E0,4.628524933E0,2.064656525E0,7.233369709E0
1.592265071E1,4.862189026E0,5.028493195E0,1.908381500E0,7.250416945E0
1.593266271E1,4.402794342E0,5.376070404E0,1.862726440E0,7.194197718E0
1.594267471E1,4.139491882E0,5.845194855E0,1.824406128E0,7.391221391E0
1.595268771E1,4.210294647E0,6.522087250E0,1.430724792E0,7.893742873E0
1.596269971E1,4.096680908E0,7.132817230E0,9.639953613E-1,8.281857470E0
1.597271171E1,4.249513092E0,7.860005035E0,2.951861572E-1,8.940088117E0
1.598272471E1,4.650229797E0,8.651708679E0,-5.087919617E-1,9.835424215E0
1.599273671E1,4.845872955E0,9.126072235E0,-1.265468445E0,1.041004753E1
1.600274871E1,4.942721558E0,9.481433258E0,-2.062710571E0,1.088957519E1
1.601276071E1,4.925058289E0,9.694739685E0,-2.736309814E0,1.121300888E1
1.602277362E1,4.750521240E0,9.693392487E0,-3.241658936E0,1.127109855E1
1.603278562E1,4.484225006E0,9.746681671E0,-3.620521088E0,1.132317316E1
1.604279762E1,4.088747406E0,9.725425873E0,-4.124822388E0,1.132766187E1
1.605281062E1,3.403921509E0,9.736802216E0,-4.990322571E0,1.145841692E1
1.606282262E1,3.097957764E0,1.004171814E1,-5.982908478E0,1.209250344E1
1.607283462E1,3.090623016E0,1.020398071E1,-6.684798889E0,1.258410542E1
1.608284762E1,3.085234222E0,9.988728333E0,-6.847809906E0,1.249743431E1
1.609285963E1,3.257975006E0,1.000788849E1,-6.768474884E0,1.251337226E1
1.610287162E1,3.585344238E0,1.029065048E1,-7.394323425E0,1.316921408E1
1.611288362E1,4.302502899E0,1.006402176E1,-8.707841949E0,1.398651410E1
1.612289662E1,5.486690369E0,9.397457886E0,-9.826765137E0,1.466224058E1
1.613290863E1,7.254813538E0,9.288334808E0,-1.036744080E1,1.569679304E1
1.614292062E1,8.627758484E0,1.006192612E1,-9.954000549E0,1.657596756E1
1.615293362E1,9.701775055E0,1.097562607E1,-9.618997192E0,1.752466587E1
1.616294562E1,1.124566452E1,1.136541550E1,-9.594747620E0,1.864663031E1
1.617295762E1,1.215502350E1,1.172377029E1,-9.532028046E0,1.939203302E1
1.618297062E1,1.359682526E1,1.233315308E1,-9.366771698E0,2.060865677E1
1.619298262E1,1.556927353E1,1.264420624E1,-9.649234314E0,2.225726741E1
1.620299462E1,1.784184769E1,1.308863205E1,-1.004725662E1,2.430208187E1
1.621300662E1,2.008867538E1,1.403855667E1,-1.045485901E1,2.664469983E1
1.622301963E1,2.187595871E1,1.423659485E1,-1.096724350E1,2.831110440E1
1.623303162E1,2.287168808E1,1.385922958E1,-1.106259521E1,2.894085992E1
1.624304362E1,2.261587006E1,1.362496674E1,-1.011147308E1,2.827294086E1
1.625305662E1,2.171459427E1,1.284508850E1,-8.540340271E0,2.663563994E1
1.626306862E1,2.074910202E1,1.147064667E1,-7.238198090E0,2.478895886E1
1.627308062E1,1.997925293E1,1.016640884E1,-6.207591248E0,2.326070948E1
1.628309362E1,1.862501907E1,8.851692810E0,-5.126688995E0,2.124915860E1
1.629310562E1,1.684791458E1,7.501201172E0,-4.310586090E0,1.893941386E1
1.630311762E1,1.513397873E1,6.408323822E0,-3.540138245E0,1.681179661E1
1.631313062E1,1.336211334E1,5.383105774E0,-2.711910553E0,1.465872981E1
1.632314262E1,1.131212631E1,4.037104797E0,-1.854044495E0,1.215318468E1
1.633315462E1,9.058712311E0,2.409689026E0,-1.122665405E0,9.440722829E0
1.634316762E1,7.079528046E0,7.837701416E-1,-6.002517700E-1,7.148028761E0
1.635317963E1,5.492677917E0,-4.715194702E-1,-2.785707092E-1,5.519913311E0
1.636319162E1,4.446204071E0,-1.479373627E0,-1.766326904E-1,4.689187144E0
1.637320363E1,3.817511444E0,-2.253264313E0,-6.077362061E-2,4.433315590E0
1.638321662E1,3.132535858E0,-2.741848297E0,8.352630615E-2,4.163831124E0
1.639322862E1,2.459235992E0,-2.988684998E0,3.287164307E-1,3.884344755E0
1.640324062E1,1.638642426E0,-3.174448700E0,6.075865173E-1,3.623732182E0
1.641325362E1,7.303312683E-1,-3.360511780E0,8.891510010E-1,3.552043452E0
1.642326562E1,-3.682342529E-2,-3.438499603E0,1.095571747E0,3.609004425E0
1.643327762E1,-8.252339172E-1,-3.387156372E0,1.330133972E0,3.731366464E0
1.644329063E1,-1.654060364E0,-3.201841736E0,1.585053864E0,3.937016883E0
1.645330262E1,-2.659369812E0,-2.858605499E0,1.776505737E0,4.289504148E0
1.646331462E1,-3.951333160E0,-2.436483307E0,1.919907532E0,5.023497744E0
1.647332662E1,-5.103487244E0,-2.177222443E0,2.050885162E0,5.915404429E0
1.648333963E1,-5.885311432E0,-1.889221344E0,2.204914856E0,6.562598377E0
1.649335162E1,-6.606811066E0,-1.308728485E0,2.470462646E0,7.173974379E0
1.650336363E1,-7.316634979E0,-6.152206421E-1,2.901416473E0,7.894926308E0
1.651337662E1,-7.935747528E0,-9.849517822E-2,3.085982666E0,8.515226312E0
1.652338862E1,-8.474477234E0,1.074765015E-1,2.920576630E0,8.964267033E0
1.653340062E1,-8.347541199E0,1.270857239E-1,2.770588531E0,8.796235312E0
1.654341362E1,-7.626939697E0,1.381626892E-1,2.612816620E0,8.063256710E0
1.655342562E1,-6.679709473E0,1.451980591E-2,2.415227509E0,7.102960888E0
1.656343762E1,-5.364843750E0,-1.225950623E-1,2.154619446E0,5.782643251E0
1.657344962E1,-3.845353546E0,-1.760339355E-1,1.860181732E0,4.275278695E0
1.658346262E1,-2.079026642E0,-1.213975525E-1,1.648072815E0,2.655792376E0
1.659347462E1,-2.615061951E-1,1.691482544E-1,1.404229889E0,1.438352600E0
1.660348662E1,1.219963074E0,3.704795837E-1,9.315129089E-1,1.579012768E0
1.661349963E1,1.904489594E0,3.246748352E-1,1.743873596E-1,1.939820948E0
1.662351162E1,2.518512726E0,2.026785278E-1,-6.923103333E-1,2.619785971E0
1.663352363E1,3.547323303E0,2.860551453E-1,-1.402283936E0,3.825144494E0
1.664353662E1,4.657564545E0,6.595285034E-1,-1.710493011E0,5.005364290E0
1.665354862E1,5.820795593E0,1.088835754E0,-2.024539948E0,6.258273455E0
