"Time (s)","Acceleration x (m/s^2)","Acceleration y (m/s^2)","Acceleration z (m/s^2)","Absolute acceleration (m/s^2)"
-5.388333229E-4,5.486540680E0,3.772305450E0,7.176676025E0,9.789642272E0
9.451166727E-3,5.580545197E0,3.906426544E0,6.792125702E0,9.619543887E0
1.944116666E-2,5.718857574E0,4.067192230E0,6.571933594E0,9.614452442E0
2.943116671E-2,5.525759125E0,3.983216858E0,6.453380127E0,9.383290761E0
3.942116664E-2,5.108127594E0,3.994892578E0,6.439608765E0,9.138965766E0
4.941116669E-2,4.777914276E0,3.956272888E0,6.506519623E0,8.989736236E0
5.940216675E-2,4.327650604E0,3.968547363E0,6.672374725E0,8.888110733E0
6.939216668E-2,3.979175262E0,3.976331177E0,6.912026367E0,8.911854683E0
7.938216673E-2,3.768563232E0,3.971990204E0,7.082821198E0,8.952381311E0
8.937216667E-2,3.599864044E0,3.944447479E0,7.203919373E0,8.967393232E0
9.936216671E-2,3.485352173E0,3.864663391E0,7.335645447E0,8.994164609E0
1.093521666E-1,3.521576843E0,3.772754517E0,7.508835297E0,9.111409749E0
1.193431667E-1,3.586990814E0,3.747606812E0,7.700436859E0,9.284814900E0
1.293331666E-1,3.481909332E0,3.622766418E0,7.722890167E0,9.213639979E0
1.393231667E-1,3.313210144E0,3.545077972E0,7.608078918E0,9.023735597E0
1.493131667E-1,3.171903992E0,3.661086731E0,7.647746429E0,9.052765126E0
1.593031667E-1,3.003204803E0,3.663032684E0,8.037984924E0,9.329857940E0
1.692931667E-1,2.762355652E0,3.469335480E0,8.295748901E0,9.406718198E0
1.792831667E-1,2.599344635E0,3.278332672E0,8.569679260E0,9.536428066E0
1.892741667E-1,2.476749573E0,3.070265350E0,8.823551331E0,9.665188868E0
1.992641666E-1,2.446662140E0,2.848127289E0,8.994645538E0,9.746878118E0
2.092541667E-1,2.429148560E0,2.647843781E0,9.195527802E0,9.872667874E0
2.192441667E-1,2.467019806E0,2.474354553E0,9.404493256E0,1.003260238E1
2.292341667E-1,2.561922455E0,2.350412292E0,9.524393921E0,1.013913035E1
2.392241667E-1,2.670297089E0,2.322570190E0,9.644743652E0,1.027355338E1
2.492141667E-1,2.747835846E0,2.342329102E0,9.759255524E0,1.040577608E1
2.592051667E-1,2.783761139E0,2.356100464E0,9.866282959E0,1.051874873E1
2.691951666E-1,2.725083160E0,2.322570190E0,9.988728333E0,1.061108403E1
2.791851667E-1,2.657573547E0,2.261497192E0,1.015727783E1,1.073998881E1
2.891751667E-1,2.447111206E0,2.061213684E0,1.018197647E1,1.067284404E1
2.991651667E-1,2.172133026E0,1.849404144E0,1.013542328E1,1.052925746E1
3.091551667E-1,2.000290375E0,1.774859161E0,1.023032593E1,1.057406522E1
3.191451667E-1,1.802701263E0,1.759141846E0,1.027448410E1,1.057872088E1
3.291361667E-1,1.576521606E0,1.802401886E0,1.022388931E1,1.050057073E1
3.391261667E-1,1.375339966E0,1.869911499E0,1.022388931E1,1.048408516E1
3.491161667E-1,1.227597198E0,1.935325470E0,1.028211823E1,1.053444041E1
3.591061666E-1,1.161584473E0,1.938917999E0,1.020892044E1,1.045613399E1
3.690961667E-1,1.181792450E0,1.894460449E0,1.009246262E1,1.033650886E1
3.790861667E-1,1.272803192E0,1.811383209E0,1.000339783E1,1.024544314E1
3.890761667E-1,1.367406464E0,1.733694763E0,9.874964905E0,1.011881563E1
3.990671667E-1,1.369651794E0,1.690734100E0,9.592202911E0,9.835897749E0
4.090571667E-1,1.348395996E0,1.744172974E0,9.374106445E0,9.629858918E0
4.190471667E-1,1.406325531E0,1.836231537E0,9.285939789E0,9.569648662E0
4.290371666E-1,1.515897675E0,1.910327454E0,9.266629944E0,9.582156712E0
4.390271667E-1,1.681154022E0,1.952240295E0,9.296717377E0,9.647096714E0
4.490171667E-1,1.773811340E0,1.850601654E0,9.234746246E0,9.583927764E0
4.590071667E-1,1.800605621E0,1.657054138E0,9.108408966E0,9.431390296E0
4.689981667E-1,1.761087799E0,1.470242615E0,9.031468964E0,9.318287140E0
4.789881667E-1,1.699865112E0,1.447639618E0,9.002579041E0,9.275323781E0
4.889781667E-1,1.632205811E0,1.478026428E0,8.869356079E0,9.138606852E0
4.989681666E-1,1.587149506E0,1.622026978E0,8.887618103E0,9.172773333E0
5.089581667E-1,1.539698181E0,1.816023560E0,9.103918304E0,9.410097797E0
5.189481667E-1,1.467099152E0,1.942809906E0,9.348210297E0,9.660016874E0
5.289380417E-1,1.448837128E0,1.997296600E0,9.667196960E0,9.977124827E0
5.389290417E-1,1.403631134E0,1.865271149E0,9.910740509E0,1.018195434E1
5.489190416E-1,1.206042023E0,1.545835419E0,9.964179382E0,1.015524570E1
5.589090417E-1,9.466314697E-1,1.188378754E0,9.969568176E0,1.008467376E1
5.688990417E-1,7.849676514E-1,1.010398865E0,9.980495453E0,1.006217519E1
5.788890417E-1,6.755451965E-1,9.639953613E-1,1.001013382E1,1.007910847E1
5.888790417E-1,6.192622375E-1,8.997789001E-1,9.943073273E0,1.000288928E1
5.988690417E-1,5.831872559E-1,8.705895996E-1,9.823471985E0,9.879202167E0
6.088600417E-1,4.863386536E-1,9.981243896E-1,9.877958679E0,9.940163241E0
6.188500416E-1,4.156855774E-1,1.013692017E0,1.013482452E1,1.019387238E1
6.288400417E-1,4.653822327E-1,8.449928284E-1,1.022897873E1,1.027436613E1
6.388300417E-1,3.198847961E-1,7.126679993E-1,1.013392639E1,1.016398967E1
6.488200417E-1,1.053808594E-1,6.947053528E-1,1.016595978E1,1.019021388E1
6.588100417E-1,-2.303709412E-1,8.619076538E-1,1.020487885E1,1.024380339E1
6.688000417E-1,-4.330494690E-1,9.349557495E-1,1.004710693E1,1.009980355E1
6.787910417E-1,-4.960684204E-1,7.375163269E-1,9.798623657E0,9.838853581E0
6.887810417E-1,-5.203179932E-1,6.062393188E-1,9.504485321E0,9.538002838E0
6.987710417E-1,-4.203259277E-1,3.294648743E-1,9.470505981E0,9.485552411E0
7.087610418E-1,-3.969744873E-1,2.336640930E-1,9.433383179E0,9.444623118E0
7.187510417E-1,-2.615061951E-1,2.535726929E-1,9.375902710E0,9.382975873E0
7.287410417E-1,4.460723877E-2,2.757266235E-1,9.346713409E0,9.350885869E0
7.387310417E-1,2.249821472E-1,3.716770935E-1,9.279503174E0,9.289668454E0
7.487220417E-1,2.203417969E-1,4.475692749E-1,9.359436951E0,9.372722593E0
7.587120417E-1,-5.328918457E-2,5.029541016E-1,9.474248199E0,9.487738482E0
7.687020417E-1,-3.978726196E-1,5.691165161E-1,9.467212830E0,9.492645311E0
7.786920416E-1,-5.095404053E-1,5.939648438E-1,9.282796326E0,9.315725054E0
7.886820417E-1,-3.954776001E-1,4.828958130E-1,9.116192780E0,9.137535865E0
7.986720417E-1,1.023870850E-1,5.433700562E-2,8.960516510E0,8.961266191E0
8.086620417E-1,7.400610352E-1,-3.960763550E-1,8.910071411E0,8.949521740E0
8.186530417E-1,1.064286804E0,-4.323010254E-1,9.099727020E0,9.171947581E0
8.286430417E-1,1.384770355E0,-4.540058899E-1,9.033714294E0,9.150502950E0
8.386330417E-1,1.212778015E0,-2.342628479E-1,9.272767181E0,9.354673741E0
8.486230416E-1,3.579057312E-1,6.321354675E-1,9.803713074E0,9.830589087E0
8.586130417E-1,-6.480024719E-1,1.300645294E0,1.035830978E1,1.045974029E1
8.686030417E-1,-1.439706116E0,1.473984833E0,1.037312897E1,1.057578317E1
8.785930417E-1,-2.320923615E0,1.718725891E0,1.078207855E1,1.116216480E1
8.885840417E-1,-2.746638336E0,1.811981964E0,1.091979218E1,1.140478680E1
8.985740417E-1,-4.103117523E0,2.206262054E0,1.072474777E1,1.169287734E1
9.085640417E-1,-5.179978180E0,2.559377747E0,1.032642609E1,1.183290599E1
9.185540417E-1,-3.503464508E0,1.821711731E0,1.040920395E1,1.113303301E1
9.285440417E-1,-1.224603424E0,8.382568359E-1,1.076456497E1,1.086637875E1
9.385340418E-1,-4.746629333E-1,9.345066833E-1,1.079749649E1,1.084825046E1
9.485240417E-1,-5.867797852E-2,9.029223633E-1,1.061502594E1,1.065351996E1
9.585150417E-1,-4.206253052E-2,7.643106079E-1,1.014964371E1,1.017846783E1
9.685050417E-1,-3.158432007E-1,6.842271423E-1,9.763297119E0,9.792338553E0
9.784950417E-1,-6.569837952E-1,5.794450378E-1,9.559870148E0,9.599921953E0
9.884850417E-1,-9.472302246E-1,3.966751099E-1,9.576036530E0,9.630943456E0
9.984750417E-1,-1.127305756E0,2.192939758E-1,9.816735992E0,9.883684215E0
1.008465042E0,-1.221609650E0,8.262817383E-2,9.810449066E0,9.886559990E0
1.018455042E0,-1.186732178E0,1.062789917E-1,9.676327972E0,9.749407752E0
1.028446042E0,-1.066232758E0,3.532653809E-1,9.636510773E0,9.701751831E0
1.038436042E0,-9.943821716E-1,5.869294739E-1,9.518705750E0,9.588484826E0
1.048426042E0,-9.845027161E-1,7.668553162E-1,9.422306213E0,9.504586632E0
1.058416042E0,-1.028960266E0,9.708810425E-1,9.480535126E0,9.585505490E0
1.068406042E0,-9.556127930E-1,1.171164551E0,9.591304779E0,9.709683289E0
1.078396042E0,-7.499404907E-1,1.204395447E0,9.504635010E0,9.609946191E0
1.088386042E0,-6.212081909E-1,1.060245209E0,9.304950256E0,9.385740184E0
1.098376042E0,-6.234535217E-1,9.845027161E-1,9.152118073E0,9.226006997E0
1.108367042E0,-6.990463257E-1,1.026864624E0,9.006920013E0,9.092179323E0
1.118357042E0,-9.101074219E-1,1.178349609E0,9.056766357E0,9.178334281E0
1.128347042E0,-1.124461670E0,1.336420898E0,9.354646912E0,9.516294116E0
1.138337042E0,-1.184486847E0,1.404678955E0,9.545350342E0,9.720588727E0
1.148327042E0,-1.108894043E0,1.416953430E0,9.751621399E0,9.916225236E0
1.158317042E0,-9.412426758E-1,1.418150940E0,9.974507904E0,1.011869052E1
1.168307042E0,-7.960446167E-1,1.340761871E0,1.012734009E1,1.024667491E1
1.178298042E0,-7.207511902E-1,1.307530975E0,1.013916550E1,1.024850216E1
1.188288042E0,-8.075706482E-1,1.467548218E0,1.012883698E1,1.026641157E1
1.198278042E0,-9.816586304E-1,1.607656860E0,9.911938019E0,1.008933742E1
1.208268042E0,-1.045426025E0,1.670825500E0,9.669741669E0,9.868560045E0
1.218258042E0,-9.990225220E-1,1.753004608E0,9.641151123E0,9.850018585E0
1.228248042E0,-8.976832581E-1,1.822759552E0,9.652976532E0,9.864494085E0
1.238239042E0,-7.551795959E-1,1.854044495E0,9.618248749E0,9.824382230E0
1.248229042E0,-6.727011108E-1,1.807640991E0,9.573042755E0,9.765410402E0
1.258219042E0,-7.553292847E-1,1.688039703E0,9.562564545E0,9.739745430E0
1.268209042E0,-8.530760193E-1,1.667382660E0,9.451345825E0,9.635135782E0
1.278199042E0,-8.545729065E-1,1.756746826E0,9.254505157E0,9.458452303E0
1.288189042E0,-8.478369141E-1,1.784888306E0,9.114396515E0,9.326139476E0
1.298179042E0,-8.117619324E-1,1.635199585E0,9.006920013E0,9.190073082E0
1.308169042E0,-6.885681152E-1,1.476679230E0,8.934919739E0,9.082262842E0
1.318160042E0,-5.715115356E-1,1.513352966E0,9.024433594E0,9.168274883E0
1.328150042E0,-4.680766296E-1,1.816622314E0,9.374555511E0,9.560413349E0
1.338140042E0,-4.035607910E-1,2.028880920E0,9.564959564E0,9.786095777E0
1.348130042E0,-3.035687256E-1,2.026934967E0,9.557624817E0,9.774907236E0
1.358120042E0,-2.363584900E-1,2.021995239E0,9.632169800E0,9.844949220E0
1.368110042E0,-1.071771240E-1,1.961520996E0,9.732910309E0,9.929178951E0
1.378100042E0,3.023712158E-2,1.877395935E0,9.813442841E0,9.991455858E0
1.388091042E0,1.368154907E-1,1.773811340E0,9.773176575E0,9.933786061E0
1.398081042E0,1.210981750E-1,1.678160248E0,9.755812683E0,9.899836751E0
1.408071042E0,-3.876937866E-1,1.619182892E0,9.775272217E0,9.916047934E0
1.418061042E0,-2.254312134E-1,1.679806824E0,9.852212219E0,9.996932320E0
1.428051042E0,-4.266128540E-2,2.000739441E0,9.911638641E0,1.011164472E1
1.438041042E0,-1.568737793E-1,2.216141510E0,9.837842102E0,1.008558525E1
1.448031042E0,-1.537303162E-1,2.164798279E0,9.625284119E0,9.866918413E0
1.458022042E0,-1.809736633E-1,2.161056061E0,9.711205444E0,9.950398281E0
1.468012042E0,-1.905537415E-1,1.916764069E0,9.879904633E0,1.006592324E1
1.478002042E0,-6.526428223E-2,1.722318420E0,9.904154205E0,1.005300506E1
1.487992042E0,-2.484832764E-2,1.790726166E0,9.946965179E0,1.010690031E1
1.497982042E0,-3.697311401E-2,1.722468109E0,9.778116302E0,9.928737172E0
1.507972042E0,-5.373825073E-2,1.639390869E0,9.617649994E0,9.756519955E0
1.517962042E0,-7.319778442E-2,1.488205261E0,9.441765747E0,9.558611470E0
1.527953458E0,-1.646575928E-3,1.313817902E0,9.212592316E0,9.305803424E0
1.537943458E0,6.795867920E-2,1.262175293E0,9.087452545E0,9.174938616E0
1.547933458E0,1.351689148E-1,1.279389496E0,8.991053009E0,9.082628602E0
1.557923458E0,6.556365967E-2,1.351838837E0,8.941506042E0,9.043356520E0
1.567913458E0,-2.326162720E-1,1.394799500E0,9.034762115E0,9.144752728E0
1.577903458E0,-5.301974487E-1,1.339414673E0,9.212442627E0,9.324389533E0
1.587893458E0,-7.737409973E-1,1.324445801E0,9.583820343E0,9.705794361E0
1.597883458E0,-1.114432526E0,1.490749969E0,9.881251831E0,1.005502029E1
1.607874458E0,-1.155297546E0,1.933080139E0,9.875264282E0,1.012878847E1
1.617864458E0,-9.065148926E-1,2.202819214E0,9.724677429E0,1.001216924E1
1.627854458E0,-2.903961182E-2,1.849254456E0,9.616003418E0,9.792247294E0
1.637844458E0,7.640112305E-1,1.272653503E0,9.759105835E0,9.871347770E0
1.647834458E0,3.385958862E-1,1.195114746E0,1.066427353E1,1.073637166E1
1.657824458E0,6.376739502E-2,1.501677246E0,1.040321640E1,1.051123267E1
1.667814458E0,-1.564247131E-1,1.735191650E0,1.041579025E1,1.056049456E1
1.677805458E0,-2.586621094E-1,1.610351257E0,1.045815216E1,1.058456819E1
1.687795458E0,-1.612147522E-1,1.302142181E0,1.023571472E1,1.031946803E1
1.697785458E0,-1.242416382E-1,1.176403656E0,1.030187714E1,1.036957251E1
1.707775458E0,-2.701881409E-1,1.203946381E0,1.040186920E1,1.047479696E1
1.717765458E0,-4.866380310E-1,1.257385254E0,1.051757858E1,1.060364529E1
1.727755458E0,-6.881190491E-1,1.331630859E0,1.048794022E1,1.059450983E1
1.737745458E0,-7.346722412E-1,1.351389771E0,1.023676254E1,1.035168126E1
1.747736458E0,-1.118474121E0,1.393452301E0,9.914931793E0,1.007464968E1
1.757726458E0,-1.210981750E0,1.483714600E0,9.544901276E0,9.735143870E0
1.767716458E0,-8.101153564E-1,1.756896515E0,9.182504883E0,9.384101884E0
1.777706458E0,-8.503816223E-1,1.716330872E0,8.811875610E0,9.017654481E0
1.787696458E0,-1.259630585E0,1.629661102E0,8.712781677E0,8.952934104E0
1.797686458E0,-1.538051605E0,1.834584961E0,8.567733307E0,8.895918094E0
1.807676458E0,-9.373507690E-1,1.341210938E0,8.966504059E0,9.114585469E0
1.817666458E0,8.816665649E-2,1.111289062E0,9.756710815E0,9.820190562E0
1.827657458E0,-4.490661621E-2,1.488804016E0,9.881251831E0,9.992882054E0
1.837647458E0,-4.035607910E-1,1.864672394E0,9.828262024E0,1.001172307E1
1.847637458E0,-2.619552612E-1,1.854044495E0,9.844278717E0,1.002077467E1
1.857627458E0,-1.987866211E-1,1.783241730E0,9.811945953E0,9.974655412E0
1.867617458E0,-3.126997375E-1,1.865869904E0,9.740095367E0,9.922132301E0
1.877607458E0,-5.421725464E-1,2.044598236E0,9.722432098E0,9.949875322E0
1.887597458E0,-4.915777588E-1,2.123035126E0,9.689201202E0,9.931240949E0
1.897588458E0,-4.543052673E-1,2.217638397E0,9.611512756E0,9.874486863E0
1.907578458E0,-1.344204712E-1,2.381697235E0,9.509275360E0,9.803921076E0
1.917568458E0,-2.472857666E-1,2.711611176E0,9.499096527E0,9.881640565E0
1.927558458E0,-2.133064270E-1,2.838547211E0,9.490414581E0,9.908118834E0
1.937548458E0,-1.466949463E-1,2.788551178E0,9.259893951E0,9.671771972E0
1.947538458E0,-3.591032410E-1,2.690056000E0,9.237440643E0,9.627858851E0
1.957528458E0,-5.601351929E-1,2.531835022E0,9.230554962E0,9.587861332E0
1.967518458E0,-5.554948425E-1,2.362686768E0,9.510622559E0,9.815437063E0
1.977509458E0,-6.718029785E-1,2.198478241E0,9.735604706E0,1.000333069E1
1.987499458E0,-8.225395203E-1,1.982776794E0,9.853260040E0,1.008437943E1
1.997489458E0,-1.080752563E0,1.864223328E0,9.872569885E0,1.010499831E1
2.007479458E0,-1.387913818E0,1.811233521E0,9.617200928E0,9.884200793E0
2.017469458E0,-1.503024445E0,1.726060638E0,9.194030914E0,9.474627817E0
2.027459458E0,-1.413061523E0,1.640738068E0,8.968899078E0,9.226587395E0
2.037449458E0,-1.394350433E0,1.749112701E0,8.919501801E0,9.195712085E0
2.047440458E0,-1.380279694E0,1.889820099E0,9.085356903E0,9.381913563E0
2.057430458E0,-1.419498138E0,2.037413177E0,9.253307648E0,9.580695687E0
2.067420458E0,-1.221160583E0,2.002685394E0,9.350156250E0,9.639886092E0
2.077410458E0,-1.048270111E0,1.975292358E0,9.577383728E0,9.834984962E0
2.087400458E0,-7.882608032E-1,1.890568542E0,9.859397278E0,1.006992151E1
2.097390458E0,-6.255491638E-1,1.834884338E0,1.007704468E1,1.026181961E1
2.107380458E0,-5.837860107E-1,1.806443481E0,1.026595184E1,1.044001012E1
2.117371458E0,-5.536985779E-1,1.928140411E0,1.049003586E1,1.068012921E1
2.127361458E0,-4.611909485E-1,2.285896454E0,1.061906754E1,1.087210260E1
2.137351458E0,-3.412902832E-1,2.549797668E0,1.067460205E1,1.098021294E1
2.147341458E0,-8.876541138E-2,2.714305573E0,1.111423782E1,1.144122443E1
2.157331458E0,5.074447632E-1,2.927612000E0,1.177511353E1,1.214420482E1
2.167321458E0,1.105151825E0,3.609743500E0,1.183154617E1,1.241922274E1
2.177311458E0,1.224004669E0,4.204756165E0,1.137739059E1,1.219111064E1
2.187301458E0,1.209634552E0,4.030817871E0,1.056772430E1,1.137486288E1
2.197292458E0,9.891430664E-1,3.490441589E0,9.760003967E0,1.041245715E1
2.207282458E0,3.362008667E-1,2.914589081E0,9.423054657E0,9.869236019E0
2.217272458E0,-1.666035461E-1,2.630030823E0,9.145232391E0,9.517357530E0
2.227262458E0,-2.191442871E-1,2.694546661E0,8.782536621E0,9.189208640E0
2.237252458E0,-1.199006653E-1,2.674039307E0,8.579708405E0,8.987561332E0
2.247242458E0,-3.427871704E-2,2.557282104E0,8.668922882E0,9.038312383E0
2.257232458E0,-8.891510010E-2,2.555635529E0,8.872948608E0,9.234088794E0
2.267223458E0,-7.698490906E-1,2.372865601E0,5.663472748E0,6.188544445E0
2.277213458E0,-2.996319122E0,3.736978912E0,7.194039917E-1,4.843602149E0
2.287203458E0,-3.594624939E0,3.160527649E0,4.608915710E0,6.644724787E0
2.297193458E0,-4.324507141E0,3.196303253E0,6.902595978E0,8.750059870E0
2.307183458E0,-5.267845459E0,3.913611603E0,6.729555817E0,9.399652815E0
2.317173458E0,-4.794679413E0,3.977079620E0,7.399562531E0,9.672623151E0
2.327163458E0,-3.957021332E0,4.189936981E0,8.543034668E0,1.030519437E1
2.337153458E0,-2.959346008E0,4.845573578E0,9.497300262E0,1.106508131E1
2.347144458E0,-2.738854523E0,4.795128479E0,9.561217346E0,1.104135220E1
2.357134458E0,-2.451751556E0,4.271068268E0,8.936865692E0,1.020395405E1
2.367124458E0,-1.949695587E0,3.647015991E0,8.433761902E0,9.393102700E0
2.377114458E0,-1.701062622E0,3.059936829E0,8.460256805E0,9.156023845E0
2.387104458E0,-1.547182617E0,2.717449036E0,8.892108765E0,9.425916486E0
2.397094458E0,-1.269510040E0,2.758463745E0,9.288933563E0,9.772669273E0
2.407084458E0,-1.126557312E0,2.974314880E0,9.721533966E0,1.022858265E1
2.417075458E0,-1.062939606E0,3.366499329E0,1.050096313E1,1.107851006E1
2.427065458E0,-1.218017120E0,3.800446930E0,1.246023880E1,1.308374998E1
2.437055458E0,-1.616638184E0,3.539539490E0,1.164323776E1,1.227627160E1
2.447045458E0,-1.518741760E0,3.579057312E0,1.198198334E1,1.259698982E1
2.457035458E0,-1.640588379E-1,2.609673157E0,1.225741058E1,1.253321282E1
2.467025458E0,1.284329224E-1,2.156116333E0,1.263552429E1,1.281880676E1
2.477015458E0,1.034349060E-1,2.140249329E0,1.319086945E1,1.336377202E1
2.487006458E0,-1.718426514E-1,2.174378357E0,1.363993561E1,1.381322897E1
2.496996458E0,-4.320016479E-1,1.929337921E0,1.327259949E1,1.341904868E1
2.506986458E0,6.466552734E-2,1.401984558E0,1.232626740E1,1.240591029E1
2.516976458E0,-9.223818970E-1,2.591411133E0,1.248089584E1,1.278041318E1
2.526966042E0,-8.054750061E-1,2.357297974E0,1.207044937E1,1.232482826E1
2.536956042E0,2.317181396E-1,2.182311859E0,1.175939621E1,1.196242357E1
2.546946042E0,-6.432124329E-1,3.339405670E0,1.202988373E1,1.250133813E1
2.556936042E0,2.068698120E-1,2.333946533E0,1.097682358E1,1.122411499E1
2.566927042E0,1.387315063E0,2.065105591E0,1.027777725E1,1.057459264E1
2.576917042E0,2.049388275E0,2.375410309E0,9.885143738E0,1.037104783E1
2.586907042E0,2.467468872E0,2.740052032E0,9.190737762E0,9.902825273E0
2.596897042E0,3.370989990E0,2.933599548E0,8.349786530E0,9.470402046E0
2.606887042E0,4.348157959E0,3.391048279E0,7.656877441E0,9.435754247E0
2.616877042E0,5.253175964E0,3.671864319E0,6.808441772E0,9.350578841E0
2.626867042E0,6.072871399E0,3.972738647E0,5.729485474E0,9.246049058E0
2.636857042E0,6.524931335E0,4.185745697E0,4.707859955E0,9.069682537E0
2.646848042E0,5.638325043E0,4.292623444E0,4.408482513E0,8.345779975E0
2.656838042E0,6.726112976E0,4.600383453E0,4.013304291E0,9.083541986E0
2.666828042E0,7.885901184E0,4.377197571E0,3.153641968E0,9.554724157E0
2.676818042E0,8.072563019E0,4.677173767E0,2.732268219E0,9.721497712E0
2.686808042E0,7.482340393E0,4.893324280E0,2.335443420E0,9.240364508E0
2.696798042E0,6.799161072E0,4.663552094E0,1.916764069E0,8.464708731E0
2.706788042E0,6.181246033E0,4.395459595E0,1.559906158E0,7.743460130E0
2.716779042E0,5.513784027E0,4.115691376E0,1.427731018E0,7.027029647E0
2.726769042E0,5.170398102E0,3.871698761E0,1.512454834E0,6.634047592E0
2.736759042E0,5.464985504E0,3.943249969E0,1.482666779E0,6.900259970E0
2.746749042E0,5.955665131E0,4.199367371E0,1.432670746E0,7.426787928E0
2.756739042E0,6.251450043E0,4.414020996E0,1.479972382E0,7.794519051E0
2.766729042E0,6.253994751E0,4.460424500E0,1.526226196E0,7.831807165E0
2.776719042E0,6.089486847E0,4.209097137E0,1.714085541E0,7.598449711E0
2.786709042E0,5.871839447E0,3.861819305E0,2.007924500E0,7.309166001E0
2.796700042E0,5.816903687E0,3.597469025E0,2.151326294E0,7.169822641E0
2.806690042E0,6.083349609E0,3.489244080E0,2.056573334E0,7.308314484E0
2.816680042E0,6.530320129E0,3.513942719E0,1.837728424E0,7.640034043E0
2.826670042E0,6.953789520E0,3.301384735E0,1.553020477E0,7.852783103E0
2.836660042E0,7.187902679E0,2.918780365E0,1.207389221E0,7.851306419E0
2.846650042E0,7.180717621E0,2.522704010E0,7.246430969E-1,7.645380873E0
2.856640042E0,7.487579498E0,2.152074738E0,1.520837402E-1,7.792201350E0
2.866630042E0,7.992629242E0,1.671723633E0,-5.063969421E-1,8.181272515E0
2.876621042E0,8.538244629E0,1.120420074E0,-1.015937347E0,8.671164350E0
2.886611042E0,9.394164734E0,9.027726746E-1,-1.427132263E0,9.544738658E0
2.896601042E0,1.024334885E1,9.375004578E-1,-1.950593719E0,1.046947556E1
2.906591042E0,1.111019623E1,1.035696259E0,-2.294428711E0,1.139181856E1
2.916581042E0,1.172362061E1,8.069718933E-1,-2.133363647E0,1.194343854E1
2.926571042E0,1.169278473E1,3.671864319E-1,-1.724414063E0,1.182495854E1
2.936561042E0,1.184247345E1,-3.278182983E-2,-1.553619232E0,1.194399367E1
2.946552042E0,1.212478638E1,-3.977229309E-1,-1.918111267E0,1.228201038E1
2.956542042E0,1.222238342E1,-3.808081055E-1,-2.563718719E0,1.249417164E1
2.966532042E0,1.277802795E1,-1.637594604E-1,-3.412603455E0,1.322689222E1
2.976522042E0,1.240245895E1,-1.877096558E-1,-4.402345276E0,1.316194769E1
2.986512042E0,1.117590958E1,1.197509766E-2,-5.413941650E0,1.241820689E1
2.996502042E0,1.040456360E1,2.823129272E-1,-5.877826996E0,1.195338841E1
3.006492042E0,9.880952454E0,-9.729766846E-2,-5.932613068E0,1.152556229E1
3.016482042E0,8.567733307E0,-2.115101624E-1,-5.456453247E0,1.015990515E1
3.026473042E0,7.795489197E0,-8.267308044E-1,-5.322930908E0,9.475585950E0
3.036463042E0,6.951693878E0,-1.281036072E0,-5.396278381E0,8.893082793E0
3.046453042E0,6.257138214E0,-1.961371307E0,-5.012326813E0,8.253615942E0
3.056443042E0,5.173691254E0,-2.708617401E0,-4.852608948E0,7.592858685E0
3.066433042E0,4.427792358E0,-2.738255768E0,-4.258644104E0,6.726027016E0
3.076423042E0,3.728296967E0,-3.258573761E0,-3.553161163E0,6.094543090E0
3.086413042E0,2.958298187E0,-3.685635681E0,-2.874173126E0,5.531393106E0
3.096404042E0,2.348915405E0,-3.730691986E0,-1.705403595E0,4.726930050E0
3.106394042E0,2.020648041E0,-4.337979126E0,-6.918612671E-1,4.835261463E0
3.116384042E0,1.760039978E0,-6.580016785E0,-1.985171814E0,7.094735283E0
3.126374042E0,2.594105530E0,-5.973777466E0,-3.219205627E0,7.264894052E0
3.136364042E0,4.440815277E0,-6.383325806E0,3.917353821E-1,7.785958212E0
3.146354042E0,5.717660065E0,-7.413333893E0,1.743424530E0,9.523060701E0
3.156344042E0,5.600603485E0,-7.416477356E0,1.068927155E0,9.354865100E0
3.166334042E0,5.586682434E0,-7.488926697E0,-1.703457642E0,9.497200199E0
3.176325042E0,4.275109863E0,-7.475305023E0,-2.535427551E0,8.976922769E0
3.186315042E0,3.321293335E0,-8.200846252E0,-3.518433380E0,9.521777257E0
3.196305042E0,3.241509247E0,-8.147856445E0,-3.776646423E0,9.547670138E0
3.206295042E0,3.048859863E0,-8.059390411E0,-2.782713318E0,9.054988331E0
3.216285042E0,2.105820923E0,-8.188422089E0,-3.746708679E0,9.247841045E0
3.226275042E0,2.144141235E0,-8.528814240E0,-3.726500702E0,9.551168591E0
3.236265042E0,4.901706848E0,-9.026828613E0,-3.360362091E0,1.080751582E1
3.246255042E0,3.828588409E0,-1.069121750E1,-2.024539948E0,1.153511954E1
3.256246042E0,7.777227173E0,-1.128967300E1,-4.460723877E0,1.441665830E1
3.266236042E0,5.087320862E0,-1.058314224E1,-2.905458069E-1,1.174598443E1
3.276226042E0,5.698499908E0,-1.259301270E1,-2.884950714E0,1.412019159E1
3.286216042E0,5.664071503E0,-1.159144547E1,-2.777923279E0,1.319697585E1
3.296206042E0,2.088906097E0,-1.154279663E1,-1.731898499E-1,1.173156756E1
3.306196042E0,4.286635895E0,-1.287727158E1,-3.041974182E0,1.390873745E1
3.316186042E0,5.806874542E0,-1.116408417E1,-4.273014221E0,1.328966583E1
3.326176042E0,6.149961090E0,-1.027313690E1,-4.007466431E0,1.262612967E1
3.336167042E0,4.710254974E0,-1.042132874E1,-3.965254211E0,1.210428996E1
3.346157042E0,4.947062531E0,-1.019499939E1,-5.070555725E0,1.241458721E1
3.356147042E0,4.179608459E0,-9.187294922E0,-5.216951294E0,1.136187025E1
3.366137042E0,3.470982056E0,-8.659043427E0,-4.577331390E0,1.039128058E1
3.376127042E0,2.889740753E0,-8.023315430E0,-5.234614563E0,1.000626712E1
3.386117042E0,2.600542145E0,-7.453749847E0,-4.524790649E0,9.099172306E0
3.396107042E0,1.953437805E0,-6.756050720E0,-3.552861786E0,7.879274552E0
3.406097042E0,2.007774811E0,-7.063361664E0,-2.794089661E0,7.856791630E0
3.416088042E0,2.483186188E0,-7.609276428E0,-2.314636688E0,8.332157248E0
3.426078042E0,3.517385559E0,-7.791896667E0,-2.174827423E0,8.821311080E0
3.436068042E0,3.701652374E0,-7.478897552E0,-1.812580719E0,8.539413783E0
3.446058042E0,3.561992798E0,-8.348439331E0,-5.680686951E-1,9.094335270E0
3.456048042E0,3.153941345E0,-1.038705002E1,2.426454163E-1,1.085803992E1
3.466038042E0,1.954335938E0,-6.479425964E0,4.127816162E0,7.927247697E0
3.476028042E0,-1.361418915E0,-5.220843201E0,1.999392242E0,5.753975541E0
3.486019042E0,-1.050365753E0,-1.105705673E1,-5.484594727E-1,1.112036778E1
3.496009042E0,1.222358093E0,-1.055305481E1,1.080004120E0,1.067836757E1
3.505999042E0,3.333567810E0,-9.815837860E0,3.404520264E0,1.091119175E1
3.515989042E0,3.095263367E0,-1.012748978E1,2.107317810E0,1.079756884E1
3.525979042E0,3.474724274E0,-1.069241501E1,1.958976288E0,1.141223184E1
3.535969167E0,3.206182709E0,-1.124237137E1,1.828597412E0,1.183276342E1
3.545959167E0,4.065845032E0,-1.214843719E1,-2.770738220E-1,1.281375792E1
3.555949167E0,4.709506531E0,-1.079076050E1,-3.116519165E-1,1.177782199E1
3.565940167E0,5.481451263E0,-1.154713760E1,4.534071350E-1,1.279016313E1
3.575930167E0,5.736221466E0,-1.247550705E1,3.230282593E-1,1.373487751E1
3.585920167E0,5.506000214E0,-1.225097397E1,1.721420288E-1,1.343249919E1
3.595910167E0,4.578379211E0,-1.197030762E1,-4.781057739E-1,1.282491348E1
3.605900167E0,3.724854126E0,-1.054302567E1,-3.814068604E-1,1.118818125E1
3.615890167E0,3.010838928E0,-8.858279114E0,5.788462830E-1,9.373863821E0
3.625880167E0,1.555565186E0,-9.774823151E0,1.101708984E-1,9.898438680E0
3.635870167E0,1.469643860E0,-1.050829788E1,-1.513652344E0,1.071799052E1
3.645861167E0,3.169958038E0,-1.129146927E1,-2.311343536E0,1.195358612E1
3.655851167E0,3.976929932E0,-1.217807556E1,-1.208287354E0,1.286784576E1
3.665841167E0,4.834047546E0,-1.233060837E1,3.847000122E-1,1.324990236E1
3.675831167E0,5.682034149E0,-1.079420334E1,1.457519073E0,1.228514142E1
3.685821167E0,5.069208527E0,-1.041788589E1,1.625469818E0,1.169920398E1
3.695811167E0,3.737128601E0,-1.196372131E1,6.508465576E-1,1.255071150E1
3.705801167E0,2.091301117E0,-1.189561295E1,-1.292262726E0,1.214697866E1
3.715791167E0,-4.107458496E-1,-1.164563278E1,-2.236948242E0,1.186563999E1
3.725782167E0,-1.729802856E0,-1.147813110E1,-1.505120087E0,1.170491769E1
3.735772167E0,-9.686357117E-1,-1.022493713E1,-1.081351318E0,1.032748349E1
3.745762167E0,-8.589138794E-1,-9.120384064E0,-2.263293457E-1,9.163534443E0
3.755752167E0,-7.738906860E-2,-8.135581970E0,5.487588501E-1,8.154435562E0
3.765742167E0,1.411564636E-1,-7.775730286E0,1.257235565E0,7.877978668E0
3.775732167E0,-1.519340515E-1,-7.953560486E0,1.095871124E0,8.030139593E0
3.785722167E0,-7.006929016E-1,-8.571026459E0,3.969744873E-1,8.608777721E0
3.795712167E0,-7.801776123E-1,-9.162596283E0,-3.746708679E-1,9.203381227E0
3.805703167E0,-1.028511200E0,-9.928852844E0,-7.786807251E-1,1.001230731E1
3.815693167E0,-1.097517700E0,-1.032448013E1,-9.714797974E-1,1.042800116E1
3.825683167E0,-8.690927124E-1,-1.045575714E1,-1.214723969E0,1.056190011E1
3.835673167E0,-6.126759338E-1,-1.024574387E1,-1.170416107E0,1.033056209E1
3.845663167E0,-3.152444458E-1,-1.004381378E1,-8.419990540E-1,1.008397425E1
3.855653167E0,1.287322998E-2,-1.003543121E1,-8.425978088E-1,1.007075054E1
3.865643167E0,1.675016785E-1,-1.017344421E1,-8.138575745E-1,1.020732032E1
3.875633167E0,9.849517822E-2,-1.004471191E1,-2.193987579E0,1.028199982E1
3.885624167E0,3.582051086E-1,-9.070238342E0,-2.513423309E0,9.418855091E0
3.895614167E0,5.864804077E-1,-8.666976929E0,-1.981130219E0,8.909844291E0
3.905604167E0,7.813751221E-1,-8.961714020E0,-1.494342499E0,9.118987047E0
3.915594167E0,7.560777283E-1,-9.445507965E0,-9.357041931E-1,9.521807422E0
3.925584167E0,6.289920044E-1,-9.843230896E0,-5.845344543E-1,9.880612630E0
3.935574167E0,4.438270569E-1,-1.001357666E1,-4.495152283E-1,1.003348214E1
3.945564167E0,1.929487610E-1,-1.001791763E1,-3.915856934E-1,1.002742451E1
3.955554167E0,1.152603149E-2,-9.830058289E0,-4.590953064E-1,9.840779812E0
3.965545167E0,-2.998265076E-1,-9.652677155E0,-3.668870544E-1,9.664299162E0
3.975535167E0,-1.691482544E-1,-9.398505707E0,-4.725672913E-1,9.411898878E0
3.985525167E0,-2.508782959E-1,-9.266629944E0,-6.722520447E-1,9.294368900E0
3.995515167E0,-4.352947998E-1,-9.254205780E0,-8.943901062E-1,9.307509863E0
4.005505167E0,6.870712280E-2,-9.864636383E0,-9.050180054E-1,9.906302500E0
4.015495167E0,8.619076538E-1,-9.490115204E0,-1.076710968E0,9.589811150E0
4.025485167E0,2.387535095E-1,-8.962462463E0,-1.359772339E0,9.068170568E0
4.035475167E0,4.138893127E-1,-9.789193268E0,-1.482966156E0,9.909530656E0
4.045466167E0,7.134164429E-1,-9.529483337E0,-1.427581329E0,9.662194583E0
4.055456167E0,-9.220825195E-2,-9.291927338E0,-1.644330597E0,9.436749394E0
4.065446167E0,-2.788700867E-1,-9.279353485E0,-1.018182678E0,9.339211187E0
4.075436167E0,-3.501219177E-1,-9.217981110E0,-6.357279968E-1,9.246508053E0
4.085426167E0,-6.846762085E-1,-9.224717102E0,-1.090781708E0,9.314182297E0
4.095416167E0,-8.297245789E-1,-9.410929871E0,-8.360115051E-1,9.484353386E0
4.105406167E0,-6.515950012E-1,-9.609267426E0,-8.816665649E-1,9.671604439E0
4.115396167E0,-1.730401611E-1,-9.042246552E0,-1.555265808E0,9.176656108E0
4.125387167E0,-5.659730530E-1,-8.984616394E0,-1.868264923E0,9.194241190E0
4.135377167E0,-9.059161377E-1,-9.012907562E0,-1.666634216E0,9.210366789E0
4.145367167E0,-5.481600952E-1,-9.514364777E0,-1.134041748E0,9.597378146E0
4.155357167E0,-2.463876343E-1,-9.440418549E0,-2.427501984E0,9.750639729E0
4.165347167E0,-3.167413330E-1,-9.345216522E0,-2.812052307E0,9.764273403E0
4.175337167E0,-8.666976929E-2,-1.019095779E1,-1.772464142E0,1.034431059E1
4.185327167E0,4.251159668E-2,-1.028511200E1,-2.580034790E0,1.060386324E1
4.195317167E0,-2.661465454E-1,-9.718390503E0,-2.762954407E0,1.010702058E1
4.205308167E0,5.179229736E-2,-8.656199341E0,-2.893782349E0,9.127236479E0
4.215298167E0,-1.143621826E-1,-7.835007019E0,-3.809877319E0,8.712954659E0
4.225288167E0,-1.225950623E-1,-7.956254883E0,-3.557951202E0,8.716423468E0
4.235278167E0,-2.993774414E-3,-8.593629456E0,-3.318898315E0,9.212250659E0
4.245268167E0,1.149609375E-1,-8.809181213E0,-3.728746033E0,9.566526885E0
4.255258167E0,-1.377136230E-2,-9.055718536E0,-3.421884155E0,9.680677612E0
4.265248167E0,-5.468128967E-1,-1.003812561E1,-3.107986908E0,1.052247845E1
4.275238167E0,-4.746629333E-1,-1.055664734E1,-2.471660156E0,1.085252099E1
4.285229167E0,-3.135978699E-1,-1.071696396E1,-2.086062012E0,1.092260568E1
4.295219167E0,-7.044351196E-1,-1.111244156E1,-1.889969788E0,1.129400602E1
4.305209167E0,-8.259823608E-1,-1.141780655E1,-2.107018433E0,1.163993470E1
4.315199167E0,-1.172362061E0,-1.131062943E1,-2.456092529E0,1.163345010E1
4.325189167E0,-1.964365082E0,-1.091979218E1,-2.551144867E0,1.138459184E1
4.335179167E0,-2.409090271E0,-1.001118164E1,-3.038082275E0,1.073580075E1
4.345169167E0,-2.775827637E0,-9.317823486E0,-3.245101776E0,1.024976776E1
4.355159167E0,-2.742746429E0,-9.101523285E0,-3.510200500E0,1.013320737E1
4.365150167E0,-2.199675751E0,-9.201215973E0,-3.696413269E0,1.015698872E1
4.375140167E0,-1.640438690E0,-9.259594574E0,-3.666625214E0,1.009332806E1
4.385130167E0,-1.020278320E0,-9.251361694E0,-3.598666534E0,9.978930898E0
4.395120167E0,-8.117619324E-1,-9.342522125E0,-3.287613373E0,9.937307421E0
4.405110167E0,-7.679031372E-1,-9.298962708E0,-3.107837219E0,9.834583613E0
4.415100167E0,-7.652087402E-1,-9.313482513E0,-2.879561920E0,9.778465002E0
4.425090167E0,-7.303312683E-1,-9.246871033E0,-2.684667206E0,9.656368140E0
4.435080167E0,-7.659571838E-1,-9.125024414E0,-2.676584015E0,9.540275832E0
4.445070167E0,-6.382727051E-1,-9.081165619E0,-2.725083160E0,9.502685898E0
4.455061167E0,-6.147715759E-1,-9.075776825E0,-2.708767090E0,9.491316464E0
4.465051167E0,-5.948629761E-1,-9.201665039E0,-2.758613434E0,9.624679191E0
4.475041167E0,-2.639012146E-1,-9.588760071E0,-2.978655853E0,1.004421994E1
4.485031167E0,-9.954299927E-2,-9.497599640E0,-2.696342926E0,9.873427617E0
4.495021167E0,-2.603086853E-1,-9.387129364E0,-2.476001129E0,9.711670294E0
4.505011167E0,-2.213896179E-1,-9.602232056E0,-2.528691559E0,9.932077064E0
4.515001167E0,-1.178050232E-1,-9.636061707E0,-2.618804169E0,9.986275507E0
4.524992167E0,-9.355545044E-2,-9.474248199E0,-2.996468811E0,9.937250973E0
4.534982667E0,1.856140137E-2,-9.338181152E0,-3.267555084E0,9.893375965E0
4.544972667E0,1.781295776E-1,-9.436526642E0,-3.454665985E0,1.005059612E1
4.554962667E0,2.658471680E-1,-9.278006287E0,-3.565585327E0,9.943111892E0
4.564952667E0,4.808001709E-1,-9.253307648E0,-3.599864044E0,9.940517711E0
4.574942667E0,4.989125061E-1,-9.416917419E0,-3.282374268E0,9.985050236E0
4.584932667E0,4.721182251E-1,-9.645192719E0,-3.382216644E0,1.023191222E1
4.594922667E0,5.355862427E-1,-9.718091125E0,-3.277733917E0,1.026994096E1
4.604912667E0,5.487588501E-1,-9.645492096E0,-2.936293945E0,1.009744899E1
4.614903667E0,7.442523193E-1,-9.604028320E0,-2.970123596E0,1.008032270E1
4.624893667E0,9.598040771E-1,-9.707014160E0,-2.799328766E0,1.014808304E1
4.634883667E0,7.158114624E-1,-9.497300262E0,-2.750829620E0,9.913534280E0
4.644873667E0,5.237608337E-1,-9.172026672E0,-2.948568420E0,9.648546752E0
4.654863667E0,4.478686523E-1,-9.057215424E0,-3.056793365E0,9.569625031E0
4.664853667E0,3.634442139E-1,-9.066196747E0,-3.144960022E0,9.603061423E0
4.674843667E0,2.255809021E-1,-9.100325775E0,-3.360212402E0,9.703496450E0
4.684833667E0,2.249821472E-1,-9.270821228E0,-3.515439606E0,9.917512734E0
4.694824667E0,1.294807434E-1,-9.355245667E0,-3.519930267E0,9.996364131E0
4.704814667E0,4.101470947E-2,-9.282946014E0,-3.350782013E0,9.869270946E0
4.714804667E0,7.589218140E-2,-9.366172943E0,-3.219654694E0,9.904399607E0
4.724794667E0,3.143463135E-3,-9.413773956E0,-3.134332123E0,9.921854052E0
4.734784667E0,8.981323242E-3,-9.306596832E0,-3.010689240E0,9.781465890E0
4.744774667E0,-1.163081360E-1,-9.371861115E0,-2.934797058E0,9.821320792E0
4.754764667E0,-2.140548706E-1,-9.334888000E0,-2.849025421E0,9.762320386E0
4.764754667E0,-3.703298950E-1,-9.209897919E0,-2.747237091E0,9.618039069E0
4.774745667E0,-5.273533630E-1,-9.210496674E0,-2.753673706E0,9.627775933E0
4.784735667E0,-5.803431702E-1,-9.312285004E0,-2.707569580E0,9.715265473E0
4.794725667E0,-5.213658142E-1,-9.447304230E0,-2.678679657E0,9.833549930E0
4.804715667E0,-5.128335571E-1,-9.507329407E0,-2.615361328E0,9.873825276E0
4.814705667E0,-5.810916138E-1,-9.478439484E0,-2.580184479E0,9.840520030E0
4.824695667E0,-8.099656677E-1,-9.432335358E0,-2.522704010E0,9.797399155E0
4.834685667E0,-7.550299072E-1,-9.452094269E0,-2.596949615E0,9.831393774E0
4.844675667E0,-6.926097107E-1,-9.514364777E0,-2.600691833E0,9.887691506E0
4.854666667E0,-7.586224365E-1,-9.452393646E0,-2.595153351E0,9.831483843E0
4.864656667E0,-4.158352661E-1,-9.489516449E0,-2.741099854E0,9.886226267E0
4.874646667E0,-3.600013733E-1,-9.435179443E0,-2.883154449E0,9.872425826E0
4.884636667E0,-3.457809448E-1,-9.333241425E0,-3.033142548E0,9.819822486E0
4.894626667E0,-3.502716064E-1,-9.357191620E0,-3.062032471E0,9.851688589E0
4.904616667E0,-3.409909058E-1,-9.296268311E0,-3.077151031E0,9.798251771E0
4.914606667E0,-4.146377563E-1,-9.256900177E0,-3.117117920E0,9.776428258E0
4.924597667E0,-5.043013000E-1,-9.315877533E0,-3.050506439E0,9.815573521E0
4.934587667E0,-5.803431702E-1,-9.411378937E0,-2.953508148E0,9.880994994E0
4.944577667E0,-5.933660889E-1,-9.469158783E0,-2.895728302E0,9.919793031E0
4.954567667E0,-4.649331665E-1,-9.485175476E0,-2.823129272E0,9.907309198E0
4.964557667E0,-3.183879089E-1,-9.461674347E0,-2.840044098E0,9.883850605E0
4.974547667E0,-1.919009399E-1,-9.365424500E0,-2.864143982E0,9.795474607E0
4.984537667E0,-8.607101440E-2,-9.299561462E0,-2.935545502E0,9.752265327E0
4.994527667E0,-4.191284180E-2,-9.306746521E0,-3.023861847E0,9.785756382E0
5.004518667E0,-5.718109131E-2,-9.319470062E0,-3.059637451E0,9.809035286E0
5.014508667E0,-5.239105225E-2,-9.291178894E0,-3.125051422E0,9.802790238E0
5.024498667E0,-1.196012878E-1,-9.261091461E0,-3.157234497E0,9.785205628E0
5.034488667E0,-1.540296936E-1,-9.245074768E0,-3.092868347E0,9.749921396E0
5.044478667E0,-1.311273193E-1,-9.249864807E0,-3.051853638E0,9.741201361E0
5.054468667E0,-9.370513916E-2,-9.276060333E0,-3.001558228E0,9.750047577E0
5.064458667E0,6.256988525E-2,-9.291777649E0,-2.959046631E0,9.751769267E0
5.074448667E0,5.014572144E-2,-9.264234924E0,-3.031795349E0,9.747838035E0
5.084439667E0,1.196012878E-1,-9.347012787E0,-3.123105469E0,9.855695829E0
5.094429667E0,1.519340515E-1,-9.339678040E0,-3.177741852E0,9.866646498E0
5.104419667E0,1.329235840E-1,-9.305549011E0,-3.235671387E0,9.852942728E0
5.114409667E0,9.624984741E-2,-9.309440918E0,-3.247347107E0,9.860031312E0
5.124399667E0,2.424957275E-2,-9.318422241E0,-3.245401154E0,9.867431771E0
5.134389667E0,1.272354126E-2,-9.391620026E0,-3.180585938E0,9.915584476E0
5.144379667E0,-9.430389404E-3,-9.414372711E0,-3.109633484E0,9.914651929E0
5.154370667E0,-1.661544800E-2,-9.397308197E0,-3.054997101E0,9.881431309E0
5.164360667E0,-3.517684937E-2,-9.442813568E0,-2.996917877E0,9.907042054E0
5.174350667E0,-2.514770508E-2,-9.472901001E0,-2.984493713E0,9.931952905E0
5.184340667E0,-3.338058472E-2,-9.411079559E0,-2.946622467E0,9.861648782E0
5.194330667E0,-4.924758911E-2,-9.400301971E0,-2.963088226E0,9.856368211E0
5.204320667E0,-8.292755127E-2,-9.373807068E0,-2.955753479E0,9.829120742E0
5.214310667E0,-8.831634521E-2,-9.321565704E0,-2.976859589E0,9.785759039E0
5.224300667E0,-1.362167358E-2,-9.371711426E0,-2.950514374E0,9.825207156E0
5.234291667E0,-1.182540894E-2,-9.382938080E0,-2.922971649E0,9.827686916E0
5.244281667E0,1.631607056E-2,-9.372310181E0,-2.905607758E0,9.812391186E0
5.254271667E0,1.077758789E-2,-9.391620026E0,-2.906356201E0,9.831050261E0
5.264261667E0,1.122665405E-2,-9.384734344E0,-2.909649353E0,9.825447782E0
5.274251667E0,-1.197509766E-2,-9.379794617E0,-2.938688965E0,9.829373494E0
5.284241667E0,-1.347198486E-3,-9.395811310E0,-2.956501923E0,9.849983533E0
5.294231667E0,-2.649490356E-2,-9.407487030E0,-2.947819977E0,9.858557542E0
5.304222667E0,-3.293151855E-3,-9.401798859E0,-2.944227448E0,9.852020498E0
5.314212667E0,1.182540894E-2,-9.394613800E0,-2.942580872E0,9.844678282E0
5.324202667E0,-3.592529297E-3,-9.383686523E0,-2.984793091E0,9.846957676E0
5.334192667E0,-3.592529297E-3,-9.387578430E0,-3.031196594E0,9.864826125E0
5.344182667E0,-5.673202515E-2,-9.399553528E0,-3.072959747E0,9.889282413E0
5.354172667E0,-1.050814819E-1,-9.401200104E0,-3.080294495E0,9.893524129E0
5.364162667E0,-6.286926270E-2,-9.433083801E0,-3.085982666E0,9.925236096E0
5.374153667E0,-5.029541016E-2,-9.380692749E0,-3.078049164E0,9.872908018E0
5.384143667E0,-4.056564331E-2,-9.301806793E0,-3.062182159E0,9.792967618E0
5.394133667E0,-1.323248291E-1,-9.211245117E0,-3.061433716E0,9.707570389E0
5.404123667E0,-1.206491089E-1,-9.253008270E0,-3.016078033E0,9.732905268E0
5.414113667E0,-1.540296936E-1,-9.262887726E0,-2.927761688E0,9.715791407E0
5.424103667E0,-1.095721436E-1,-9.233099670E0,-2.822829895E0,9.655594451E0
5.434093667E0,-4.296066284E-2,-9.246871033E0,-2.763253784E0,9.651012433E0
5.444083667E0,-8.337661743E-2,-9.227710876E0,-2.863245850E0,9.662079304E0
5.454074667E0,-3.278182983E-2,-9.243128815E0,-2.984493713E0,9.713068910E0
5.464064667E0,-9.340576172E-2,-9.221423950E0,-3.114124146E0,9.733506742E0
5.474054667E0,-2.059716797E-1,-9.139394531E0,-3.228336639E0,9.695004600E0
5.484044667E0,-2.721340942E-1,-9.119785309E0,-3.241359558E0,9.682507569E0
5.494034667E0,-3.758683777E-1,-9.144334259E0,-3.185525665E0,9.690598529E0
5.504024667E0,-4.456233215E-1,-9.203161926E0,-3.129392395E0,9.730871818E0
5.514014667E0,-4.743635559E-1,-9.302405548E0,-3.047812042E0,9.800455500E0
5.524005667E0,-3.902384949E-1,-9.444310455E0,-3.044668579E0,9.930623989E0
5.533995458E0,-3.507206726E-1,-9.478589172E0,-3.073558502E0,9.970627842E0
5.543985458E0,-3.421884155E-1,-9.418414307E0,-3.169059906E0,9.943166581E0
5.553975458E0,-2.853067017E-1,-9.384734344E0,-3.225642242E0,9.927709026E0
5.563965458E0,-2.293231201E-1,-9.403595123E0,-3.287613373E0,9.964366113E0
5.573955458E0,-2.191442871E-1,-9.340276794E0,-3.306623840E0,9.910729339E0
5.583945458E0,-1.818717957E-1,-9.339977417E0,-3.271746368E0,9.898109910E0
5.593936458E0,-1.296304321E-1,-9.409732361E0,-3.192261658E0,9.937323666E0
5.603926458E0,-1.202000427E-1,-9.384434967E0,-3.153492279E0,9.900837402E0
5.613916458E0,-9.580078125E-2,-9.325457611E0,-3.125051422E0,9.835613038E0
5.623906458E0,-1.324745178E-1,-9.308692474E0,-3.129242706E0,9.821479776E0
5.633896458E0,-1.197509766E-1,-9.224866791E0,-3.149151306E0,9.748315832E0
5.643886458E0,-7.229965210E-2,-9.168134766E0,-3.169359283E0,9.700760825E0
5.653876458E0,-4.849914551E-2,-9.152567139E0,-3.186423798E0,9.691498027E0
5.663867458E0,-1.332229614E-2,-9.116791534E0,-3.154689789E0,9.647182647E0
5.673857458E0,1.437011719E-2,-9.111103363E0,-3.150797882E0,9.640536203E0
5.683847458E0,3.382965088E-2,-9.164691925E0,-3.119512939E0,9.681119951E0
5.693837458E0,4.475692749E-2,-9.200168152E0,-3.123853912E0,9.716149467E0
5.703827458E0,-1.871109009E-2,-9.154513092E0,-3.140020294E0,9.678077676E0
5.713817458E0,-1.661544800E-2,-9.124725037E0,-3.132086792E0,9.647323501E0
5.723807458E0,-4.505630493E-2,-9.183702393E0,-3.126697998E0,9.701477211E0
5.733798458E0,9.654922485E-2,-9.244026947E0,-3.040926361E0,9.731833799E0
5.743788458E0,-3.472778320E-2,-9.046288147E0,-3.018023987E0,9.536509007E0
5.753778458E0,-6.137237549E-3,-8.990005188E0,-3.118465118E0,9.515516572E0
5.763768458E0,-6.032455444E-2,-8.996741180E0,-2.953208771E0,9.469236134E0
5.773758458E0,-1.706451416E-1,-8.960217133E0,-2.733316040E0,9.369398455E0
5.783748458E0,-1.294807434E-1,-8.954828339E0,-2.411185913E0,9.274671603E0
5.793738458E0,-1.327738953E-1,-8.990903320E0,-2.235750732E0,9.265665263E0
5.803729458E0,-1.080752563E-1,-9.015302582E0,-2.252216492E0,9.292999517E0
5.813719458E0,-2.133064270E-1,-9.049880676E0,-2.355950775E0,9.353948040E0
5.823709458E0,-4.486170959E-1,-9.174870758E0,-2.651585999E0,9.560879616E0
5.833699458E0,-6.973997498E-1,-9.283544769E0,-2.870131531E0,9.742085244E0
5.843689458E0,-9.434880066E-1,-9.455686798E0,-3.012635193E0,9.968758862E0
5.853679458E0,-1.117575989E0,-9.809401245E0,-3.059188385E0,1.033595484E1
5.863669458E0,-1.203347626E0,-1.025322830E1,-3.025508423E0,1.075780820E1
5.873660458E0,-1.137933655E0,-1.060754150E1,-3.010988617E0,1.108516496E1
5.883650458E0,-1.072968750E0,-1.077923447E1,-3.063529358E0,1.125736958E1
5.893640458E0,-8.933422852E-1,-1.063568298E1,-2.882406006E0,1.105549987E1
5.903630458E0,-6.996450806E-1,-1.032822235E1,-2.707270203E0,1.070004636E1
5.913620458E0,-3.522175598E-1,-1.006536896E1,-2.581232300E0,1.039704139E1
5.923610458E0,6.466552734E-2,-9.857601013E0,-2.479593658E0,1.016488387E1
5.933600458E0,4.734654236E-1,-9.766590271E0,-2.389181671E0,1.006571627E1
5.943591458E0,6.677613831E-1,-9.548344116E0,-2.421364746E0,9.873185295E0
5.953581458E0,5.951623535E-1,-9.329798584E0,-2.579885101E0,9.698204317E0
5.963571458E0,4.778063965E-1,-9.322014771E0,-2.709665222E0,9.719595874E0
5.973561458E0,2.094145203E-1,-9.194330292E0,-2.741099854E0,9.596519805E0
5.983551458E0,-2.157014465E-1,-9.047186279E0,-2.714006195E0,9.447959373E0
5.993541458E0,-6.024971008E-1,-9.066795502E0,-2.610122223E0,9.454232991E0
6.003531458E0,-8.449928284E-1,-9.053772583E0,-2.533930664E0,9.439577081E0
6.013521458E0,-8.746311951E-1,-8.975036316E0,-2.467169495E0,9.348966890E0
6.023512458E0,-8.402027893E-1,-9.074429626E0,-2.330803070E0,9.406585817E0
6.033502458E0,-7.623646545E-1,-9.372160492E0,-2.223027191E0,9.662320738E0
6.043492458E0,-6.686595154E-1,-9.688452759E0,-2.270927582E0,9.973481563E0
6.053482458E0,-5.167254639E-1,-9.957144012E0,-2.292482758E0,1.023069887E1
6.063472458E0,-4.493655396E-1,-1.018212616E1,-2.399809570E0,1.047075492E1
6.073462458E0,-3.441343689E-1,-1.034843033E1,-2.692451019E0,1.069849201E1
6.083452458E0,-2.868035889E-1,-1.035396881E1,-3.019071808E0,1.078896293E1
6.093443458E0,-2.402503967E-1,-1.019260437E1,-3.404669952E0,1.074889211E1
6.103433458E0,-2.104623413E-1,-9.940678253E0,-3.683989105E0,1.060345011E1
6.113423458E0,-2.312690735E-1,-9.552236023E0,-3.788621521E0,1.027873297E1
6.123413458E0,-1.977388000E-1,-9.078171844E0,-3.788621521E0,9.839001865E0
6.133403458E0,-1.414558411E-1,-8.701704712E0,-3.712879028E0,9.461772843E0
6.143393458E0,-2.140548706E-2,-8.548872528E0,-3.600462799E0,9.276152870E0
6.153384458E0,7.185058594E-2,-8.464597778E0,-3.576213226E0,9.189335074E0
6.163374458E0,4.685256958E-2,-8.283773804E0,-3.572321320E0,9.021340433E0
6.173364458E0,-1.766326904E-2,-8.322393494E0,-3.442541199E0,9.006310863E0
6.183354458E0,-1.285826111E-1,-8.482710114E0,-3.345542908E0,9.119515431E0
6.193344458E0,-2.763253784E-1,-8.729097748E0,-3.290008392E0,9.332612626E0
6.203334458E0,-4.233197021E-1,-8.938661957E0,-3.246898041E0,9.519518057E0
6.213324458E0,-5.117857361E-1,-9.103918304E0,-3.299887848E0,9.697036297E0
6.223314458E0,-5.364843750E-1,-9.231752472E0,-3.434008942E0,9.864354343E0
6.233305458E0,-4.870870972E-1,-9.264983368E0,-3.627556458E0,9.961743648E0
6.243295458E0,-4.137396240E-1,-9.278305664E0,-3.830833740E0,1.004656278E1
6.253285458E0,-3.043171692E-1,-9.268725586E0,-4.014052734E0,1.010517206E1
6.263275458E0,-2.639012146E-1,-9.218729553E0,-4.095184021E0,1.009084489E1
6.273265458E0,-2.477348328E-1,-9.147926788E0,-4.108057251E0,1.003105535E1
6.283255458E0,-2.492317200E-1,-9.070388031E0,-3.994892578E0,9.914293832E0
6.293245458E0,-2.652484131E-1,-8.999884644E0,-3.818708954E0,9.780123639E0
6.303236458E0,-2.691403198E-1,-8.938512268E0,-3.656147003E0,9.661099781E0
6.313226458E0,-2.351609802E-1,-8.840765533E0,-3.533102875E0,9.523510478E0
6.323216458E0,-1.824705505E-1,-8.820856934E0,-3.510050812E0,9.495328812E0
6.333206458E0,-1.652563477E-1,-8.872349854E0,-3.578907623E0,9.568410597E0
6.343196458E0,-1.445993042E-1,-8.879534912E0,-3.630250854E0,9.594048701E0
6.353186458E0,-1.237925720E-1,-8.968899078E0,-3.685036926E0,9.697214674E0
6.363176458E0,-1.826202393E-1,-9.037157135E0,-3.678750000E0,9.758932359E0
6.373167458E0,-2.167492676E-1,-9.039552155E0,-3.646417236E0,9.749709845E0
6.383157458E0,-2.486329651E-1,-9.150621185E0,-3.672612762E0,9.863253567E0
6.393147458E0,-2.742297363E-1,-9.168883209E0,-3.653901672E0,9.873936332E0
6.403137458E0,-2.862048340E-1,-9.133706360E0,-3.651806030E0,9.840843072E0
6.413127458E0,-3.055146790E-1,-9.128766632E0,-3.638483734E0,9.831901308E0
6.423117458E0,-2.947370911E-1,-9.163195038E0,-3.610791321E0,9.853366289E0
6.433107458E0,-2.517764282E-1,-9.250014496E0,-3.623365173E0,9.937551747E0
6.443098458E0,-3.776646423E-1,-9.127569122E0,-3.613934784E0,9.824239069E0
6.453088458E0,-4.297563171E-1,-9.129365387E0,-3.535348206E0,9.799422932E0
6.463078458E0,-4.490661621E-1,-9.183702393E0,-3.444636841E0,9.818735816E0
6.473068458E0,-5.224136353E-1,-9.122030640E0,-3.423830109E0,9.757405988E0
6.483058458E0,-5.562432861E-1,-9.120683441E0,-3.416944427E0,9.755602608E0
6.493048458E0,-5.628295898E-1,-9.097631378E0,-3.430266724E0,9.739117190E0
6.503038458E0,-5.454656982E-1,-9.083410950E0,-3.507506104E0,9.752357991E0
6.513029458E0,-5.421725464E-1,-9.094787292E0,-3.542832642E0,9.775518917E0
6.523019458E0,-5.445675659E-1,-9.118587799E0,-3.545676727E0,9.798827519E0
6.533009583E0,-5.451663208E-1,-9.161249084E0,-3.569776611E0,9.847283694E0
6.542999583E0,-5.688171387E-1,-9.213340759E0,-3.541635132E0,9.886980342E0
6.552989583E0,-5.896238708E-1,-9.233698425E0,-3.510799255E0,9.896188879E0
6.562979583E0,-5.731581116E-1,-9.209299164E0,-3.485052795E0,9.863330791E0
6.572969583E0,-5.295986938E-1,-9.185199280E0,-3.459156647E0,9.829248460E0
6.582960583E0,-4.876858521E-1,-9.157506866E0,-3.437751160E0,9.793666450E0
6.592950583E0,-4.528083801E-1,-9.147777100E0,-3.407813416E0,9.772412884E0
6.602940583E0,-4.572990417E-1,-9.123078461E0,-3.394640808E0,9.744909914E0
6.612930583E0,-4.743635559E-1,-9.112450562E0,-3.394790497E0,9.735829628E0
6.622920583E0,-4.948709106E-1,-9.169481964E0,-3.371888123E0,9.782327239E0
6.632910583E0,-4.972659302E-1,-9.181906128E0,-3.367996216E0,9.792756101E0
6.642900583E0,-5.152285767E-1,-9.194479980E0,-3.351530457E0,9.799830560E0
6.652890583E0,-5.016069031E-1,-9.224567413E0,-3.342848511E0,9.824402761E0
6.662881583E0,-4.758604431E-1,-9.257947998E0,-3.355272675E0,9.858696619E0
6.672871583E0,-4.824467468E-1,-9.214538269E0,-3.375031586E0,9.825034788E0
6.682861583E0,-4.677772522E-1,-9.197773132E0,-3.422033844E0,9.824874645E0
6.692851583E0,-4.769082642E-1,-9.158854065E0,-3.464545441E0,9.803832128E0
6.702841583E0,-5.007087708E-1,-9.160051575E0,-3.429967346E0,9.793974174E0
6.712831583E0,-5.426216125E-1,-9.152267761E0,-3.395239563E0,9.776814158E0
6.722821583E0,-5.804928589E-1,-9.159901886E0,-3.379372559E0,9.780640746E0
6.732812583E0,-5.875282288E-1,-9.162296906E0,-3.366948395E0,9.779019148E0
6.742802583E0,-5.734574890E-1,-9.168733521E0,-3.362757111E0,9.782773801E0
6.752792583E0,-5.694158936E-1,-9.181307373E0,-3.373534698E0,9.798029184E0
6.762782583E0,-5.287005615E-1,-9.183552704E0,-3.368894348E0,9.796255084E0
6.772772583E0,-5.281018066E-1,-9.193132782E0,-3.350332947E0,9.798842417E0
6.782762583E0,-5.535488892E-1,-9.181906128E0,-3.303779755E0,9.773882401E0
6.792752583E0,-5.255570984E-1,-9.174272003E0,-3.311713257E0,9.767851440E0
6.802743583E0,-5.248086548E-1,-9.196425934E0,-3.321892090E0,9.792070319E0
6.812733583E0,-4.941224670E-1,-9.202862549E0,-3.342100067E0,9.803390687E0
6.822723583E0,-5.029541016E-1,-9.203760681E0,-3.340004425E0,9.803968740E0
6.832713583E0,-5.074447632E-1,-9.216484222E0,-3.349883881E0,9.819511374E0
6.842703583E0,-5.278024292E-1,-9.228459320E0,-3.356470184E0,9.834069805E0
6.852693583E0,-5.525010681E-1,-9.210346985E0,-3.367247772E0,9.822123323E0
6.862683583E0,-5.457650757E-1,-9.211245117E0,-3.355422363E0,9.818541407E0
6.872673583E0,-5.376818848E-1,-9.217981110E0,-3.349883881E0,9.822525111E0
6.882664583E0,-5.430706787E-1,-9.193432159E0,-3.335364075E0,9.794834054E0
6.892654583E0,-5.489085388E-1,-9.188791809E0,-3.368145905E0,9.802020319E0
6.902644583E0,-5.643264771E-1,-9.175918579E0,-3.372636566E0,9.792375787E0
6.912634583E0,-5.646258545E-1,-9.179810486E0,-3.368894348E0,9.794752270E0
6.922624583E0,-5.586383057E-1,-9.184301147E0,-3.367247772E0,9.798051943E0
6.932614583E0,-5.779481506E-1,-9.194629669E0,-3.346441040E0,9.801729768E0
6.942604583E0,-5.776487732E-1,-9.211993561E0,-3.364553375E0,9.824190699E0
6.952595583E0,-5.547463989E-1,-9.208850098E0,-3.357518005E0,9.817514494E0
6.962585583E0,-5.420228577E-1,-9.208101654E0,-3.359913025E0,9.816921126E0
6.972575583E0,-5.162763977E-1,-9.175918579E0,-3.365601196E0,9.787302718E0
6.982565583E0,-4.927752686E-1,-9.175170135E0,-3.349584503E0,9.779892168E0
6.992555583E0,-4.752616882E-1,-9.186247101E0,-3.353925476E0,9.790905248E0
7.002545583E0,-4.926255798E-1,-9.212592316E0,-3.366349640E0,9.820735565E0
7.012535583E0,-5.122348022E-1,-9.247469788E0,-3.380570068E0,9.859327358E0
7.022525583E0,-5.303471375E-1,-9.248517609E0,-3.364403687E0,9.855737324E0
7.032516583E0,-5.273533630E-1,-9.267079010E0,-3.372037811E0,9.875600941E0
7.042506583E0,-4.975653076E-1,-9.228010254E0,-3.384162598E0,9.841559885E0
7.052496583E0,-4.779560852E-1,-9.202712860E0,-3.397185516E0,9.821366271E0
7.062486583E0,-4.623884583E-1,-9.205706635E0,-3.414549408E0,9.829444816E0
7.072476583E0,-4.571493530E-1,-9.189689941E0,-3.388204193E0,9.805065752E0
7.082466583E0,-4.474195862E-1,-9.167985077E0,-3.343297577E0,9.768816374E0
7.092456583E0,-4.531077576E-1,-9.146280212E0,-3.332220612E0,9.744918808E0
7.102447583E0,-4.668791199E-1,-9.164841614E0,-3.348836060E0,9.768674469E0
7.112437583E0,-4.891827393E-1,-9.191336517E0,-3.347937927E0,9.794317490E0
7.122427583E0,-5.339396667E-1,-9.240584106E0,-3.367547150E0,9.849561412E0
7.132417583E0,-5.294490051E-1,-9.231902161E0,-3.387455750E0,9.848004377E0
7.142407583E0,-5.093907166E-1,-9.226513367E0,-3.384911041E0,9.841018777E0
7.152397583E0,-4.966671753E-1,-9.210346985E0,-3.363355865E0,9.817806911E0
7.162387583E0,-4.921765137E-1,-9.196126556E0,-3.342549133E0,9.797122847E0
7.172377583E0,-4.938230896E-1,-9.220974884E0,-3.357518005E0,9.825638209E0
7.182368583E0,-4.842430115E-1,-9.224268036E0,-3.343596954E0,9.823505112E0
7.192358583E0,-4.376898193E-1,-9.227710876E0,-3.328628082E0,9.819469706E0
7.202348583E0,-4.282594299E-1,-9.213640137E0,-3.328628082E0,9.805831715E0
7.212338583E0,-4.242178345E-1,-9.205257568E0,-3.348237305E0,9.804459226E0
7.222328583E0,-4.263134766E-1,-9.222172394E0,-3.356619873E0,9.823293939E0
7.232318583E0,-4.330494690E-1,-9.226663055E0,-3.349734192E0,9.825454806E0
7.242308583E0,-4.478686523E-1,-9.214238892E0,-3.343447266E0,9.812309835E0
7.252298583E0,-4.541555786E-1,-9.213939514E0,-3.322041779E0,9.805044632E0
7.262289583E0,-4.296066284E-1,-9.188043365E0,-3.339705048E0,9.785618659E0
7.272279583E0,-4.372407532E-1,-9.183852081E0,-3.356769562E0,9.787860870E0
7.282269583E0,-4.134402466E-1,-9.225016479E0,-3.315305786E0,9.811376781E0
7.292259583E0,-4.257147217E-1,-9.208401031E0,-3.327280884E0,9.800340844E0
7.302249583E0,-4.402345276E-1,-9.170978851E0,-3.341052246E0,9.770531697E0
7.312239583E0,-4.216731262E-1,-9.188941498E0,-3.351979523E0,9.790312600E0
7.322229583E0,-4.230203247E-1,-9.191785583E0,-3.337160339E0,9.787977704E0
7.332220583E0,-4.321513367E-1,-9.194180603E0,-3.306474152E0,9.780208743E0
7.342210583E0,-4.619393921E-1,-9.212891693E0,-3.307671661E0,9.799563928E0
7.352200583E0,-4.719685364E-1,-9.229357452E0,-3.322191467E0,9.820425114E0
7.362190583E0,-4.685256958E-1,-9.230854340E0,-3.297343140E0,9.813289966E0
7.372180583E0,-4.616400146E-1,-9.242829437E0,-3.306025085E0,9.827146553E0
7.382170583E0,-4.510121155E-1,-9.233399048E0,-3.291654968E0,9.812953803E0
7.392160583E0,-4.556524658E-1,-9.233997803E0,-3.300785980E0,9.816797985E0
7.402150583E0,-4.324507141E-1,-9.239536285E0,-3.313060455E0,9.825091041E0
7.412141583E0,-4.321513367E-1,-9.222322083E0,-3.319796448E0,9.811168525E0
7.422131583E0,-4.375401306E-1,-9.213939514E0,-3.327131195E0,9.806014722E0
7.432121583E0,-4.409829712E-1,-9.195527802E0,-3.319796448E0,9.786380638E0
7.442111583E0,-4.405339050E-1,-9.210047607E0,-3.341950378E0,9.807531768E0
7.452101583E0,-4.403842163E-1,-9.177565155E0,-3.306623840E0,9.765009045E0
7.462091583E0,-4.487667847E-1,-9.168134766E0,-3.276237030E0,9.746271892E0
7.472081583E0,-4.317022705E-1,-9.172924805E0,-3.287014618E0,9.753634267E0
7.482071583E0,-4.070036316E-1,-9.226962433E0,-3.285068665E0,9.802763071E0
7.492062583E0,-3.833528137E-1,-9.252559204E0,-3.304378510E0,9.832381631E0
7.502052583E0,-3.894900513E-1,-9.244176636E0,-3.322041779E0,9.830689994E0
7.512042583E0,-3.799099731E-1,-9.266180878E0,-3.320095825E0,9.850354102E0
7.522032583E0,-3.794609070E-1,-9.244176636E0,-3.317251740E0,9.828680041E0
7.532022167E0,-3.812571716E-1,-9.232500916E0,-3.322490845E0,9.819540498E0
7.542012167E0,-3.614982605E-1,-9.215735779E0,-3.317850494E0,9.801459016E0
7.552002167E0,-3.466790771E-1,-9.207502899E0,-3.317102051E0,9.792929186E0
7.561992167E0,-3.508703613E-1,-9.203161926E0,-3.309018860E0,9.786261046E0
7.571983167E0,-3.688330078E-1,-9.206455078E0,-3.297492828E0,9.786128542E0
7.581973167E0,-3.989204407E-1,-9.212292938E0,-3.280578003E0,9.787117591E0
7.591963167E0,-4.071533203E-1,-9.244176636E0,-3.277883606E0,9.816572540E0
7.601953167E0,-3.912863159E-1,-9.254355469E0,-3.281027069E0,9.826562916E0
7.611943167E0,-3.559597778E-1,-9.208101654E0,-3.315904541E0,9.793419544E0
7.621933167E0,-3.535647583E-1,-9.219328308E0,-3.316652985E0,9.804142467E0
7.631923167E0,-3.564088440E-1,-9.231602783E0,-3.316802673E0,9.815839097E0
7.641913167E0,-3.724255371E-1,-9.213191071E0,-3.315305786E0,9.798614338E0
7.651904167E0,-3.579057312E-1,-9.214837646E0,-3.323987732E0,9.802562104E0
7.661894167E0,-3.453318787E-1,-9.235045624E0,-3.316952362E0,9.818731830E0
7.671884167E0,-3.302133179E-1,-9.247619476E0,-3.308270416E0,9.827113511E0
7.681874167E0,-3.294648743E-1,-9.245823212E0,-3.297043762E0,9.821623671E0
7.691864167E0,-3.224295044E-1,-9.218579865E0,-3.294349365E0,9.794841155E0
7.701854167E0,-3.158432007E-1,-9.194629669E0,-3.298840027E0,9.773603082E0
7.711844167E0,-3.496728516E-1,-9.206155701E0,-3.299289093E0,9.785748945E0
7.721834167E0,-3.784130859E-1,-9.228758698E0,-3.309467926E0,9.811511683E0
7.731825167E0,-4.123924255E-1,-9.230405273E0,-3.315455475E0,9.816450175E0
7.741815167E0,-4.239184570E-1,-9.239386597E0,-3.303330688E0,9.821301603E0
7.751805167E0,-3.823049927E-1,-9.224866791E0,-3.299738159E0,9.804723165E0
7.761795167E0,-3.456312561E-1,-9.238488464E0,-3.306623840E0,9.818497405E0
7.771785167E0,-3.388952637E-1,-9.232351227E0,-3.323688354E0,9.818251548E0
7.781775167E0,-3.378474426E-1,-9.237590332E0,-3.323089600E0,9.822939505E0
7.791765167E0,-3.409909058E-1,-9.231902161E0,-3.307072906E0,9.812289412E0
7.801755167E0,-3.326083374E-1,-9.223968658E0,-3.300037537E0,9.802166794E0
7.811746167E0,-3.486250305E-1,-9.213490448E0,-3.282523956E0,9.786976508E0
7.821736167E0,-3.480262756E-1,-9.222172394E0,-3.284320221E0,9.795730971E0
7.831726167E0,-3.546125793E-1,-9.266031189E0,-3.279230804E0,9.835570077E0
7.841716167E0,-3.695814514E-1,-9.270222473E0,-3.307072906E0,9.849383045E0
7.851706167E0,-3.637435913E-1,-9.281598816E0,-3.307971039E0,9.860175372E0
7.861696167E0,-3.498225403E-1,-9.276060333E0,-3.301684113E0,9.852349420E0
7.871686167E0,-3.348536682E-1,-9.251810760E0,-3.283422089E0,9.822880939E0
7.881676167E0,-3.409909058E-1,-9.233249359E0,-3.292104034E0,9.808522697E0
7.891667167E0,-3.071612549E-1,-9.230704651E0,-3.273692322E0,9.798842677E0
7.901657167E0,-3.314108276E-1,-9.238338776E0,-3.254831543E0,9.800544110E0
7.911647167E0,-3.502716064E-1,-9.220675507E0,-3.245251465E0,9.781370255E0
7.921637167E0,-3.266207886E-1,-9.233399048E0,-3.222349091E0,9.784982002E0
7.931627167E0,-3.347039795E-1,-9.278455353E0,-3.232378235E0,9.831074689E0
7.941617167E0,-3.305126953E-1,-9.292825470E0,-3.226690063E0,9.842630371E0
7.951607167E0,-3.333567810E-1,-9.284143524E0,-3.230282593E0,9.835709092E0
7.961597167E0,-3.348536682E-1,-9.265731812E0,-3.217409363E0,9.814154879E0
7.971588167E0,-3.552113342E-1,-9.215286713E0,-3.221750336E0,9.768692825E0
7.981578167E0,-3.671864319E-1,-9.260792084E0,-3.193758545E0,9.802917399E0
7.991568167E0,-3.686833191E-1,-9.239985352E0,-3.226540375E0,9.794070629E0
8.001558167E0,-4.031117249E-1,-9.110803986E0,-3.340303802E0,9.712202522E0
8.011548167E0,-3.454815674E-1,-9.228010254E0,-3.308270416E0,9.809188749E0
8.021538167E0,-2.044747925E-1,-9.389973450E0,-3.252885590E0,9.939551096E0
8.031528167E0,-3.191363525E-1,-9.153764648E0,-3.280578003E0,9.729103108E0
8.041518167E0,-4.436773682E-1,-9.096433868E0,-3.325334930E0,9.695349975E0
8.051509167E0,-4.778063965E-1,-9.234446869E0,-3.326981506E0,9.827111166E0
8.061499167E0,-4.357438660E-1,-9.233548737E0,-3.380270691E0,9.842485709E0
8.071489167E0,-3.959266663E-1,-9.274413757E0,-3.341501312E0,9.865958620E0
8.081479167E0,-3.793112183E-1,-9.255403290E0,-3.289259949E0,9.829832047E0
8.091469167E0,-2.800675964E-1,-9.263785858E0,-3.287313995E0,9.833747993E0
8.101459167E0,-4.102967834E-1,-9.172026672E0,-3.370540924E0,9.780335518E0
8.111449167E0,-3.920347595E-1,-9.252110138E0,-3.373085632E0,9.855604494E0
8.121439167E0,-3.457809448E-1,-9.211694183E0,-3.328328705E0,9.800645191E0
8.131430167E0,-3.279679871E-1,-9.219178619E0,-3.312761078E0,9.801795926E0
8.141420167E0,-3.397933960E-1,-9.236243134E0,-3.254831543E0,9.798855808E0
8.151410167E0,-3.493734741E-1,-9.233249359E0,-3.290457458E0,9.808265180E0
8.161400167E0,-3.369493103E-1,-9.220974884E0,-3.317700806E0,9.805460279E0
8.171390167E0,-3.347039795E-1,-9.225615234E0,-3.311114502E0,9.807521728E0
8.181380167E0,-3.453318787E-1,-9.234746246E0,-3.293151855E0,9.810435336E0
8.191370167E0,-3.453318787E-1,-9.239835663E0,-3.275488586E0,9.809314077E0
8.201360167E0,-3.348536682E-1,-9.237740021E0,-3.301534424E0,9.815706659E0
8.211351167E0,-3.448828125E-1,-9.220675507E0,-3.338956604E0,9.812666924E0
8.221341167E0,-3.658392334E-1,-9.225016479E0,-3.324885864E0,9.812728132E0
8.231331167E0,-3.501219177E-1,-9.253457336E0,-3.298989716E0,9.830177576E0
8.241321167E0,-3.695814514E-1,-9.248367920E0,-3.302731934E0,9.827356606E0
8.251311167E0,-3.891906738E-1,-9.239236908E0,-3.285817108E0,9.813845428E0
8.261301167E0,-3.869453430E-1,-9.264833679E0,-3.281176758E0,9.836309812E0
8.271291167E0,-3.944297791E-1,-9.271569672E0,-3.288212128E0,9.845299286E0
8.281281167E0,-3.972738647E-1,-9.265282745E0,-3.285218353E0,9.838493305E0
8.291271167E0,-3.568579102E-1,-9.263785858E0,-3.283571777E0,9.834984474E0
8.301262167E0,-3.375480652E-1,-9.254505157E0,-3.284769287E0,9.825961209E0
8.311252167E0,-3.311114502E-1,-9.301208038E0,-3.276386719E0,9.866955746E0
8.321242167E0,-3.513194275E-1,-9.232500916E0,-3.296894073E0,9.809791487E0
8.331232167E0,-3.435356140E-1,-9.203012238E0,-3.302731934E0,9.783735952E0
8.341222167E0,-3.300636292E-1,-9.192534027E0,-3.240162048E0,9.752449638E0
8.351212167E0,-3.339555359E-1,-9.202263794E0,-3.238515472E0,9.761207287E0
8.361202167E0,-3.420387268E-1,-9.227561188E0,-3.247646484E0,9.788364708E0
8.371192167E0,-3.597019958E-1,-9.236093445E0,-3.282224579E0,9.808557786E0
8.381183167E0,-3.796105957E-1,-9.222022705E0,-3.269051971E0,9.791655007E0
8.391173167E0,-3.655398560E-1,-9.221573639E0,-3.260819092E0,9.787950803E0
8.401163167E0,-3.550616455E-1,-9.219627686E0,-3.244203644E0,9.780207601E0
8.411153167E0,-3.269201660E-1,-9.235644379E0,-3.216660919E0,9.785239463E0
8.421143167E0,-3.097059631E-1,-9.232949982E0,-3.214116211E0,9.781299820E0
8.431133167E0,-3.363505554E-1,-9.306297455E0,-3.228785706E0,9.856234633E0
8.441123167E0,-3.706292725E-1,-9.240434418E0,-3.244802399E0,9.800598803E0
8.451113167E0,-3.565585327E-1,-9.239536285E0,-3.193309479E0,9.782299841E0
8.461104167E0,-3.300636292E-1,-9.243577881E0,-3.181783447E0,9.781432408E0
8.471094167E0,-3.397933960E-1,-9.267677765E0,-3.209326172E0,9.813515435E0
8.481084167E0,-3.788621521E-1,-9.204658813E0,-3.234623566E0,9.763814317E0
8.491074167E0,-2.909948730E-1,-9.109307098E0,-3.249592438E0,9.675949816E0
8.501064167E0,-3.394940186E-1,-9.385183411E0,-3.316652985E0,9.959774639E0
8.511054167E0,-3.909869385E-1,-9.337283020E0,-3.313808899E0,9.915596523E0
8.521044167E0,-3.478765869E-1,-9.234746246E0,-3.224145355E0,9.787577311E0
8.531034167E0,-3.348536682E-1,-9.272467804E0,-3.261717224E0,9.835120000E0
8.541023917E0,-3.613485718E-1,-9.268725586E0,-3.234324188E0,9.823476968E0
8.551014917E0,-3.438349915E-1,-9.258546753E0,-3.230432281E0,9.811962250E0
8.561004917E0,-3.279679871E-1,-9.243428192E0,-3.225342865E0,9.795476729E0
8.570994917E0,-2.959346008E-1,-9.219777374E0,-3.173700256E0,9.755216319E0
8.580984917E0,-2.579136658E-1,-9.216484222E0,-3.165617065E0,9.748396396E0
8.590974917E0,-2.507286072E-1,-9.208101654E0,-3.187621307E0,9.747457643E0
8.600964917E0,-2.547702026E-1,-9.238039398E0,-3.205733643E0,9.781769163E0
8.610954917E0,-2.459385681E-1,-9.201665039E0,-3.214415588E0,9.750056043E0
8.620944917E0,-2.350112915E-1,-9.265282745E0,-3.223546600E0,9.812846037E0
8.630935917E0,-3.200344849E-1,-9.320817261E0,-3.261417847E0,9.880126662E0
8.640925917E0,-3.164419556E-1,-9.264683990E0,-3.234324188E0,9.818113765E0
8.650915917E0,-3.106040955E-1,-9.249864807E0,-3.172203369E0,9.783626530E0
8.660905917E0,-3.189866638E-1,-9.242080994E0,-3.169508972E0,9.775663697E0
8.670895917E0,-3.318598938E-1,-9.276509399E0,-3.193309479E0,9.816363026E0
8.680885917E0,-3.282673645E-1,-9.265731812E0,-3.199147339E0,9.807960500E0
8.690875917E0,-3.273692322E-1,-9.240883484E0,-3.218906250E0,9.790937423E0
8.700865917E0,-3.396437073E-1,-9.261690216E0,-3.190764771E0,9.801797964E0
8.710855917E0,-3.240760803E-1,-9.261241150E0,-3.179837494E0,9.797294495E0
8.720846917E0,-3.321592712E-1,-9.273665314E0,-3.187321930E0,9.811738848E0
8.730836917E0,-3.293151855E-1,-9.269174652E0,-3.194956055E0,9.809882334E0
8.740826917E0,-3.372486877E-1,-9.271569672E0,-3.169359283E0,9.804110318E0
8.750816917E0,-3.532653809E-1,-9.265432434E0,-3.181035004E0,9.802653636E0
8.760806917E0,-3.576063538E-1,-9.251661072E0,-3.196153564E0,9.794718602E0
8.770796917E0,-3.367996216E-1,-9.254205780E0,-3.192111969E0,9.795066995E0
8.780786917E0,-3.568579102E-1,-9.269474030E0,-3.193159790E0,9.810543604E0
8.790776917E0,-3.769161987E-1,-9.284143524E0,-3.189716949E0,9.824035882E0
8.800767917E0,-3.960763550E-1,-9.294022980E0,-3.213218079E0,9.841773725E0
8.810757917E0,-3.796105957E-1,-9.289382629E0,-3.226690063E0,9.841151488E0
8.820747917E0,-3.742218018E-1,-9.282347260E0,-3.242557068E0,9.839521784E0
8.830737917E0,-3.689826965E-1,-9.254954224E0,-3.228636017E0,9.808894761E0
8.840727917E0,-3.632945251E-1,-9.263636169E0,-3.209775238E0,9.810687798E0
8.850717917E0,-3.879931641E-1,-9.250463562E0,-3.220253448E0,9.802634701E0
8.860707917E0,-3.839515686E-1,-9.261839905E0,-3.190764771E0,9.803574708E0
8.870697917E0,-3.855981445E-1,-9.280850372E0,-3.192261658E0,9.822087561E0
8.880688917E0,-3.858975220E-1,-9.303004303E0,-3.212170258E0,9.849509821E0
8.890678917E0,-3.761677551E-1,-9.286239166E0,-3.243155823E0,9.843464823E0
8.900668917E0,-3.685336304E-1,-9.267827454E0,-3.264261932E0,9.832794552E0
8.910658917E0,-3.697311401E-1,-9.276060333E0,-3.248095551E0,9.835248910E0
8.920648917E0,-3.903881836E-1,-9.262887726E0,-3.241359558E0,9.821400294E0
8.930638917E0,-4.001179504E-1,-9.242380371E0,-3.221450958E0,9.795888708E0
8.940628917E0,-3.974235535E-1,-9.253906403E0,-3.200344849E0,9.799741647E0
8.950618917E0,-3.882925415E-1,-9.292526093E0,-3.196452942E0,9.834588130E0
8.960608917E0,-3.905378723E-1,-9.302405548E0,-3.208428040E0,9.847907356E0
8.970599917E0,-3.906875610E-1,-9.282347260E0,-3.220403137E0,9.832883798E0
8.980589917E0,-3.858975220E-1,-9.270072784E0,-3.223845978E0,9.822237485E0
8.990579917E0,-3.688330078E-1,-9.266779633E0,-3.237916718E0,9.823102729E0
9.000569917E0,-3.604504395E-1,-9.253906403E0,-3.247347107E0,9.813764388E0
9.010559917E0,-3.724255371E-1,-9.229357452E0,-3.260968781E0,9.795593762E0
9.020549917E0,-3.841012573E-1,-9.266330566E0,-3.246149597E0,9.825981027E0
9.030539917E0,-3.665876770E-1,-9.280850372E0,-3.220552826E0,9.830591572E0
9.040529917E0,-3.719764709E-1,-9.282946014E0,-3.191213837E0,9.823202072E0
9.050520917E0,-3.766168213E-1,-9.271270294E0,-3.199596405E0,9.815075662E0
9.060510917E0,-3.775149536E-1,-9.276060333E0,-3.195704498E0,9.818367486E0
9.070500917E0,-3.737727356E-1,-9.232800293E0,-3.153043213E0,9.763502897E0
9.080490917E0,-3.758683777E-1,-9.220825195E0,-3.151396637E0,9.751727800E0
9.090480917E0,-4.002676392E-1,-9.238488464E0,-3.190764771E0,9.782170675E0
9.100470917E0,-4.062551880E-1,-9.261390839E0,-3.242108002E0,9.820879178E0
9.110460917E0,-4.275109863E-1,-9.298663330E0,-3.278482361E0,9.868959011E0
9.120450917E0,-4.044589233E-1,-9.273066559E0,-3.250041504E0,9.834435429E0
9.130440917E0,-3.558100891E-1,-9.239985352E0,-3.187321930E0,9.780743898E0
9.140431917E0,-3.558100891E-1,-9.279652863E0,-3.177442474E0,9.815024134E0
9.150421917E0,-3.625460815E-1,-9.260343018E0,-3.218307495E0,9.810346355E0
9.160411917E0,-3.523672485E-1,-9.251661072E0,-3.194956055E0,9.794138015E0
9.170401917E0,-3.393443298E-1,-9.259444885E0,-3.165766754E0,9.791555203E0
9.180391917E0,-3.562591553E-1,-9.261390839E0,-3.175496521E0,9.797145452E0
9.190381917E0,-3.685336304E-1,-9.271419983E0,-3.185825043E0,9.810429488E0
9.200371917E0,-3.656895447E-1,-9.254205780E0,-3.172353058E0,9.789682190E0
9.210361917E0,-3.755690002E-1,-9.252708893E0,-3.169958038E0,9.787865339E0
9.220351917E0,-3.864962769E-1,-9.253756714E0,-3.189267883E0,9.795551150E0
9.230342917E0,-3.929328918E-1,-9.248517609E0,-3.207080841E0,9.796675035E0
9.240332917E0,-3.986210632E-1,-9.235195312E0,-3.204835510E0,9.783593504E0
9.250322917E0,-3.935316467E-1,-9.251511383E0,-3.214116211E0,9.801830087E0
9.260312917E0,-4.011657715E-1,-9.275910645E0,-3.209326172E0,9.823605588E0
9.270302917E0,-3.912863159E-1,-9.291927338E0,-3.208877106E0,9.838186363E0
9.280292917E0,-3.787124634E-1,-9.291178894E0,-3.206332397E0,9.836157574E0
9.290282917E0,-3.538641357E-1,-9.271270294E0,-3.202739868E0,9.815254218E0
9.300272917E0,-3.806584167E-1,-9.257947998E0,-3.186723175E0,9.798454294E0
9.310262917E0,-3.879931641E-1,-9.252858582E0,-3.191962280E0,9.795639531E0
9.320253917E0,-3.987707520E-1,-9.254205780E0,-3.208128662E0,9.802623743E0
9.330243917E0,-3.854484558E-1,-9.245074768E0,-3.212170258E0,9.794795340E0
9.340233917E0,-3.737727356E-1,-9.251361694E0,-3.218606873E0,9.802388967E0
9.350223917E0,-3.725752258E-1,-9.254954224E0,-3.228935394E0,9.809129103E0
9.360213917E0,-3.653901672E-1,-9.230554962E0,-3.226540375E0,9.785050724E0
9.370203917E0,-3.561094666E-1,-9.253307648E0,-3.214864655E0,9.802340084E0
9.380193917E0,-3.543132019E-1,-9.261091461E0,-3.192860413E0,9.802433908E0
9.390183917E0,-3.595523071E-1,-9.243877258E0,-3.205434265E0,9.790472586E0
9.400174917E0,-3.655398560E-1,-9.257349243E0,-3.226540375E0,9.810336242E0
9.410164917E0,-3.770658875E-1,-9.258995819E0,-3.221450958E0,9.810653828E0
9.420154917E0,-3.894900513E-1,-9.283993835E0,-3.219505005E0,9.834096629E0
9.430144917E0,-4.055067444E-1,-9.292376404E0,-3.222049713E0,9.843490199E0
9.440134917E0,-4.483177185E-1,-9.277407532E0,-3.223995667E0,9.831857777E0
9.450124917E0,-4.435276794E-1,-9.269324341E0,-3.208877106E0,9.819062217E0
9.460114917E0,-4.132905579E-1,-9.254804535E0,-3.221750336E0,9.808256282E0
9.470104917E0,-4.049079895E-1,-9.255702667E0,-3.223097534E0,9.809196708E0
9.480094917E0,-4.035607910E-1,-9.233997803E0,-3.237317963E0,9.793355111E0
9.490085917E0,-3.950285339E-1,-9.226513367E0,-3.241658936E0,9.787387246E0
9.500075917E0,-4.041595459E-1,-9.234297180E0,-3.192411346E0,9.778909937E0
9.510065917E0,-4.188290405E-1,-9.247769165E0,-3.195405121E0,9.793225525E0
9.520055917E0,-4.282594299E-1,-9.285790100E0,-3.207978973E0,9.833637832E0
9.530045917E0,-3.969744873E-1,-9.285490723E0,-3.242407379E0,9.843329331E0
9.540039542E0,-3.962260437E-1,-9.291328583E0,-3.251837769E0,9.851915082E0
9.550029542E0,-3.811074829E-1,-9.277706909E0,-3.215014343E0,9.826362788E0
9.560019542E0,-3.893403625E-1,-9.266031189E0,-3.179687805E0,9.804148839E0
9.570009542E0,-4.031117249E-1,-9.260492706E0,-3.197800140E0,9.805363326E0
9.580000542E0,-4.035607910E-1,-9.245074768E0,-3.210673370E0,9.795034062E0
9.589990542E0,-4.085005188E-1,-9.263935547E0,-3.230132904E0,9.819426311E0
9.599980542E0,-3.782633972E-1,-9.270521851E0,-3.217409363E0,9.820253642E0
9.609970542E0,-3.881428528E-1,-9.276509399E0,-3.230581970E0,9.830612462E0
9.619960542E0,-3.760180664E-1,-9.254205780E0,-3.227288818E0,9.808012404E0
9.629950542E0,-3.878434753E-1,-9.283694458E0,-3.243754578E0,9.841714744E0
9.639940542E0,-4.186793518E-1,-9.278904419E0,-3.218157806E0,9.830050828E0
9.649930542E0,-4.339476013E-1,-9.263336792E0,-3.217858429E0,9.815922367E0
9.659921542E0,-4.553530884E-1,-9.251810760E0,-3.212469635E0,9.804249586E0
9.669911542E0,-4.348457336E-1,-9.233997803E0,-3.192261658E0,9.779894719E0
9.679901542E0,-4.224215698E-1,-9.210047607E0,-3.202590179E0,9.760122990E0
9.689891542E0,-4.050576782E-1,-9.216783600E0,-3.220702515E0,9.771698744E0
9.699881542E0,-3.891906738E-1,-9.216334534E0,-3.223396912E0,9.771518780E0
9.709871542E0,-3.782633972E-1,-9.239087219E0,-3.200943604E0,9.785185527E0
9.719861542E0,-3.950285339E-1,-9.269174652E0,-3.195255432E0,9.812405594E0
9.729851542E0,-4.197271729E-1,-9.318571930E0,-3.192261658E0,9.859132224E0
9.739841542E0,-4.348457336E-1,-9.352700958E0,-3.212769012E0,9.898686315E0
9.749832542E0,-4.498146057E-1,-9.331894226E0,-3.232677612E0,9.886191763E0
9.759822542E0,-4.680766296E-1,-9.342522125E0,-3.230731659E0,9.896435845E0
9.769812542E0,-4.836442566E-1,-9.333241425E0,-3.229384460E0,9.887984185E0
9.779802542E0,-4.945715332E-1,-9.273216248E0,-3.239263916E0,9.835139617E0
9.789792542E0,-4.867877197E-1,-9.247619476E0,-3.227737885E0,9.806820082E0
9.799782542E0,-4.495152283E-1,-9.223968658E0,-3.236868896E0,9.785754034E0
9.809772542E0,-4.227209473E-1,-9.210047607E0,-3.219205627E0,9.765600586E0
9.819762542E0,-4.025129700E-1,-9.195378113E0,-3.214415588E0,9.749331408E0
9.829752542E0,-4.114942932E-1,-9.167386322E0,-3.217858429E0,9.724449208E0
9.839743542E0,-4.230203247E-1,-9.157357178E0,-3.189267883E0,9.706058227E0
9.849733542E0,-4.016148376E-1,-9.175170135E0,-3.182980957E0,9.719897595E0
9.859723542E0,-4.339476013E-1,-9.209149475E0,-3.171305237E0,9.749560066E0
9.869713542E0,-4.403842163E-1,-9.231752472E0,-3.172203369E0,9.771492526E0
9.879703542E0,-4.348457336E-1,-9.259444885E0,-3.185825043E0,9.801831033E0
9.889693542E0,-4.291575623E-1,-9.290280762E0,-3.213367767E0,9.839676075E0
9.899683542E0,-4.242178345E-1,-9.291777649E0,-3.233725433E0,9.847541461E0
9.909673542E0,-4.189787292E-1,-9.295070801E0,-3.213367767E0,9.843760297E0
9.919663542E0,-4.141886902E-1,-9.294621735E0,-3.199147339E0,9.838500351E0
9.929654542E0,-4.061054993E-1,-9.273365936E0,-3.182980957E0,9.812828605E0
9.939644542E0,-3.903881836E-1,-9.250014496E0,-3.190166016E0,9.792462934E0
9.949634542E0,-3.785627747E-1,-9.234596558E0,-3.196303253E0,9.779439546E0
9.959624542E0,-3.713777161E-1,-9.209897919E0,-3.202290802E0,9.757807513E0
9.969614542E0,-3.589535522E-1,-9.218280487E0,-3.226091309E0,9.773085896E0
9.979604542E0,-3.775149536E-1,-9.209299164E0,-3.234623566E0,9.768136887E0
9.989594542E0,-3.950285339E-1,-9.204359436E0,-3.214864655E0,9.757644947E0
9.999584542E0,-4.104464722E-1,-9.213640137E0,-3.217858429E0,9.768021486E0
1.000957454E1,-4.523593140E-1,-9.231004028E0,-3.226989441E0,9.789255598E0
1.001956554E1,-4.698728943E-1,-9.258696442E0,-3.234773254E0,9.818757474E0
1.002955554E1,-4.803511047E-1,-9.286688232E0,-3.213517456E0,9.838699607E0
1.003954554E1,-4.742138672E-1,-9.313482513E0,-3.201093292E0,9.859656870E0
1.004953554E1,-4.571493530E-1,-9.322912903E0,-3.207230530E0,9.869752692E0
1.005952554E1,-4.246669006E-1,-9.313931580E0,-3.214415588E0,9.862156510E0
1.006951554E1,-3.833528137E-1,-9.313033447E0,-3.226240997E0,9.863477193E0
1.007950554E1,-3.689826965E-1,-9.282496948E0,-3.234773254E0,9.836902756E0
1.008949554E1,-3.769161987E-1,-9.252858582E0,-3.205733643E0,9.799703360E0
1.009948554E1,-3.739224243E-1,-9.241931305E0,-3.200943604E0,9.787704132E0
1.010947654E1,-4.029620361E-1,-9.234596558E0,-3.187172241E0,9.777434166E0
1.011946654E1,-4.327500916E-1,-9.246272278E0,-3.161575470E0,9.781430526E0
1.012945654E1,-4.126918030E-1,-9.256600800E0,-3.170407104E0,9.793184063E0
1.013944654E1,-3.909869385E-1,-9.268725586E0,-3.172203369E0,9.804336744E0
1.014943654E1,-3.785627747E-1,-9.284592590E0,-3.190315704E0,9.824717993E0
1.015942654E1,-3.784130859E-1,-9.284891968E0,-3.204087067E0,9.829475533E0
1.016941654E1,-3.737727356E-1,-9.319020996E0,-3.195255432E0,9.858677176E0
1.017940654E1,-4.049079895E-1,-9.323811035E0,-3.185675354E0,9.861335110E0
1.018939654E1,-4.170327759E-1,-9.307195587E0,-3.185226288E0,9.845987637E0
1.019938754E1,-4.011657715E-1,-9.299411774E0,-3.173101501E0,9.834051375E0
1.020937754E1,-3.823049927E-1,-9.278006287E0,-3.182382202E0,9.816064091E0
1.021936754E1,-3.809577942E-1,-9.284891968E0,-3.205733643E0,9.830110675E0
1.022935754E1,-3.851490784E-1,-9.261091461E0,-3.197201385E0,9.805011554E0
1.023934754E1,-3.832031250E-1,-9.235644379E0,-3.185675354E0,9.777141667E0
1.024933754E1,-4.159849548E-1,-9.231303406E0,-3.175496521E0,9.771068734E0
1.025932754E1,-4.418811035E-1,-9.255253601E0,-3.155138855E0,9.788252108E0
1.026931754E1,-4.626878357E-1,-9.248517609E0,-3.169508972E0,9.787489214E0
1.027930754E1,-4.423301697E-1,-9.232800293E0,-3.178190918E0,9.774515576E0
1.028929854E1,-4.216731262E-1,-9.209448853E0,-3.163072357E0,9.746629321E0
1.029928854E1,-4.053570557E-1,-9.218430176E0,-3.190465393E0,9.763341573E0
1.030927854E1,-3.923341370E-1,-9.216484222E0,-3.189417572E0,9.760629690E0
1.031926854E1,-3.939807129E-1,-9.241482239E0,-3.156935120E0,9.773763560E0
1.032925854E1,-3.954776001E-1,-9.274862823E0,-3.115022278E0,9.791978693E0
1.033924854E1,-4.028123474E-1,-9.278305664E0,-3.116369476E0,9.795967155E0
1.034923854E1,-3.975732422E-1,-9.302704926E0,-3.134930878E0,9.824773535E0
1.035922854E1,-3.649411011E-1,-9.319320374E0,-3.151097260E0,9.844405933E0
1.036921854E1,-3.583547974E-1,-9.311686249E0,-3.188220062E0,9.848891619E0
1.037920954E1,-3.597019958E-1,-9.288035431E0,-3.213068390E0,9.834673160E0
1.038919954E1,-3.646417236E-1,-9.286987610E0,-3.201841736E0,9.830203098E0
1.039918954E1,-4.041595459E-1,-9.283993835E0,-3.184178467E0,9.823180696E0
1.040917954E1,-4.248165894E-1,-9.279353485E0,-3.182980957E0,9.819278895E0
1.041916954E1,-4.210743713E-1,-9.303453369E0,-3.152743835E0,9.832158558E0
1.042915954E1,-4.113446045E-1,-9.298363953E0,-3.136427765E0,9.821708390E0
1.043914954E1,-3.826043701E-1,-9.270072784E0,-3.159180450E0,9.801074260E0
1.044913954E1,-3.567082214E-1,-9.273665314E0,-3.173999634E0,9.808281337E0
1.045913054E1,-3.532653809E-1,-9.242829437E0,-3.170257416E0,9.777792415E0
1.046912054E1,-3.505709839E-1,-9.265582123E0,-3.161126404E0,9.796256031E0
1.047911054E1,-3.683839417E-1,-9.281748505E0,-3.189417572E0,9.821351561E0
1.048910054E1,-3.950285339E-1,-9.286987610E0,-3.190465393E0,9.827678049E0
1.049909054E1,-4.155358887E-1,-9.307944031E0,-3.163222046E0,9.839535856E0
1.050908054E1,-4.366419983E-1,-9.316027222E0,-3.122806091E0,9.835188728E0
1.051907054E1,-2.996768188E-1,-9.290729828E0,-3.070115662E0,9.789437017E0
1.052906054E1,-4.462220764E-1,-9.298513641E0,-3.167263641E0,9.833261364E0
1.053905083E1,-4.179309082E-1,-9.296417999E0,-3.109783173E0,9.811666792E0
1.054904183E1,-3.519181824E-1,-9.233099670E0,-3.082988892E0,9.740574749E0
1.055903183E1,-2.917433167E-1,-9.257049866E0,-3.154240723E0,9.784033980E0
1.056902183E1,-3.408412170E-1,-9.253008270E0,-3.193159790E0,9.794416993E0
1.057901183E1,-3.553610229E-1,-9.233099670E0,-3.196153564E0,9.777106350E0
1.058900183E1,-3.598516846E-1,-9.282496948E0,-3.185525665E0,9.820479448E0
1.059899183E1,-3.164419556E-1,-9.313033447E0,-3.151246948E0,9.836822903E0
1.060898183E1,-3.429368591E-1,-9.303153992E0,-3.136427765E0,9.823617409E0
1.061897183E1,-4.123924255E-1,-9.339079285E0,-3.191513214E0,9.877966693E0
1.062896183E1,-3.858975220E-1,-9.331594849E0,-3.120411072E0,9.847057661E0
1.063895283E1,-4.173321533E-1,-9.313931580E0,-3.147654419E0,9.840285358E0
1.064894283E1,-2.891986084E-1,-9.305848389E0,-3.048410797E0,9.796696303E0
1.065893283E1,-3.794609070E-1,-9.239386597E0,-3.109483795E0,9.755979947E0
1.066892283E1,-3.269201660E-1,-9.299262085E0,-3.111579437E0,9.811476888E0
1.067891283E1,-3.882925415E-1,-9.260043640E0,-3.093616791E0,9.770856880E0
1.068890283E1,-4.507127380E-1,-9.276060333E0,-3.126548309E0,9.799170455E0
1.069889283E1,-4.664300537E-1,-9.296268311E0,-3.115920410E0,9.815656957E0
1.070888283E1,-4.538562012E-1,-9.289382629E0,-3.154989166E0,9.821027020E0
1.071887283E1,-3.863465881E-1,-9.301357727E0,-3.111729126E0,9.815669993E0
1.072886383E1,-3.564088440E-1,-9.289532318E0,-3.144361267E0,9.813737603E0
1.073885383E1,-3.370989990E-1,-9.273365936E0,-3.142565002E0,9.797176446E0
1.074884383E1,-3.186872864E-1,-9.270072784E0,-3.183729401E0,9.806729522E0
1.075883383E1,-3.174897766E-1,-9.298214264E0,-3.176244965E0,9.830875868E0
1.076882383E1,-3.264710999E-1,-9.290131073E0,-3.145409088E0,9.813598579E0
1.077881383E1,-3.577560425E-1,-9.290131073E0,-3.124752045E0,9.808088503E0
1.078880383E1,-3.573069763E-1,-9.278006287E0,-3.117716675E0,9.794346645E0
1.079879383E1,-3.496728516E-1,-9.294921112E0,-3.119363251E0,9.810619587E0
1.080878383E1,-3.438349915E-1,-9.297615509E0,-3.132086792E0,9.817018098E0
1.081877483E1,-3.474275208E-1,-9.308542786E0,-3.151246948E0,9.833617442E0
1.082876483E1,-3.728746033E-1,-9.306447144E0,-3.131637726E0,9.826298833E0
1.083875483E1,-3.776646423E-1,-9.306147766E0,-3.121907959E0,9.823101655E0
1.084874483E1,-4.185296631E-1,-9.302106171E0,-3.118614807E0,9.819883126E0
1.085873483E1,-4.442761230E-1,-9.278006287E0,-3.131637726E0,9.802343433E0
1.086872483E1,-4.439767456E-1,-9.270821228E0,-3.136876831E0,9.797205614E0
1.087871483E1,-4.285588074E-1,-9.242679749E0,-3.126548309E0,9.766580564E0
1.088870483E1,-3.688330078E-1,-9.265282745E0,-3.121758270E0,9.784011286E0
1.089869483E1,-3.471281433E-1,-9.288933563E0,-3.144211578E0,9.812790181E0
1.090868583E1,-3.408412170E-1,-9.247918854E0,-3.099604340E0,9.759493989E0
1.091867583E1,-3.438349915E-1,-9.293424225E0,-3.094814301E0,9.801215837E0
1.092866583E1,-3.616479492E-1,-9.292825470E0,-3.119063873E0,9.808973132E0
1.093865583E1,-3.683839417E-1,-9.286089478E0,-3.127296753E0,9.805465287E0
1.094864583E1,-4.098477173E-1,-9.297016754E0,-3.143313446E0,9.822571715E0
1.095863583E1,-4.165837097E-1,-9.326206055E0,-3.141217804E0,9.849817798E0
1.096862583E1,-4.143383789E-1,-9.344168701E0,-3.137475586E0,9.865541955E0
1.097861583E1,-3.685336304E-1,-9.342372437E0,-3.157533875E0,9.868422364E0
1.098860583E1,-3.424877930E-1,-9.306596832E0,-3.172802124E0,9.838532198E0
1.099859683E1,-3.394940186E-1,-9.290131073E0,-3.178939362E0,9.824838269E0
1.100858683E1,-3.291654968E-1,-9.277856598E0,-3.153492279E0,9.804666569E0
1.101857683E1,-2.908451843E-1,-9.264234924E0,-3.124302979E0,9.781201805E0
1.102856683E1,-3.411405945E-1,-9.240584106E0,-3.135829010E0,9.764127975E0
1.103855683E1,-3.528163147E-1,-9.260492706E0,-3.126548309E0,9.780414554E0
1.104854683E1,-3.471281433E-1,-9.257648621E0,-3.111130371E0,9.772598841E0
1.105853683E1,-3.772155762E-1,-9.273815002E0,-3.124452667E0,9.793270177E0
1.106852683E1,-4.098477173E-1,-9.302555237E0,-3.132236481E0,9.824276791E0
1.107851683E1,-4.043092346E-1,-9.314530334E0,-3.162323914E0,9.845010607E0
1.108850783E1,-3.936813354E-1,-9.341923370E0,-3.172353058E0,9.873719723E0
1.109849783E1,-4.209246826E-1,-9.328750763E0,-3.151546326E0,9.855709646E0
1.110848783E1,-4.102967834E-1,-9.326206055E0,-3.164419556E0,9.856977932E0
1.111847783E1,-3.808081055E-1,-9.322763214E0,-3.165167999E0,9.852777133E0
1.112846783E1,-3.555107117E-1,-9.288634186E0,-3.144061890E0,9.812758943E0
1.113845783E1,-3.484753418E-1,-9.273964691E0,-3.149899750E0,9.800496140E0
1.114844783E1,-3.564088440E-1,-9.290580139E0,-3.158132629E0,9.819150080E0
1.115843783E1,-3.580554199E-1,-9.278605042E0,-3.143912201E0,9.803310621E0
1.116842783E1,-3.475772095E-1,-9.266779633E0,-3.121608582E0,9.784602946E0
1.117841883E1,-3.359014893E-1,-9.279054108E0,-3.119962006E0,9.795296721E0
1.118840883E1,-3.168910217E-1,-9.298064575E0,-3.135080566E0,9.817492293E0
1.119839883E1,-3.218307495E-1,-9.284143524E0,-3.147504730E0,9.808449523E0
1.120838883E1,-3.324586487E-1,-9.282496948E0,-3.137774963E0,9.804127196E0
1.121837883E1,-3.333567810E-1,-9.311536560E0,-3.132984924E0,9.830128910E0
1.122836883E1,-3.356021118E-1,-9.287586365E0,-3.123404846E0,9.804465671E0
1.123835883E1,-3.367996216E-1,-9.292825470E0,-3.143313446E0,9.815826945E0
1.124834883E1,-3.326083374E-1,-9.286239166E0,-3.154989166E0,9.813196360E0
1.125833883E1,-3.110531616E-1,-9.294921112E0,-3.162623291E0,9.823161336E0
1.126832983E1,-3.348536682E-1,-9.254056091E0,-3.142115936E0,9.778679547E0
1.127831983E1,-3.737727356E-1,-9.263187103E0,-3.135679321E0,9.786665733E0
1.128830983E1,-4.011657715E-1,-9.278305664E0,-3.104095001E0,9.792001621E0
1.129829983E1,-4.246669006E-1,-9.277856598E0,-3.086132355E0,9.786888062E0
1.130828983E1,-4.267625427E-1,-9.300010529E0,-3.085683289E0,9.807841937E0
1.131827983E1,-3.848497009E-1,-9.286538544E0,-3.129991150E0,9.807382526E0
1.132826983E1,-3.900888062E-1,-9.301806793E0,-3.155587921E0,9.830234688E0
1.133825983E1,-3.965254211E-1,-9.311536560E0,-3.163072357E0,9.842102024E0
1.134824983E1,-3.915856934E-1,-9.314230957E0,-3.156036987E0,9.842195240E0
1.135824083E1,-4.173321533E-1,-9.291328583E0,-3.134781189E0,9.814774886E0
1.136823083E1,-4.116439819E-1,-9.282796326E0,-3.137625275E0,9.807367167E0
1.137822083E1,-4.209246826E-1,-9.297914886E0,-3.136876831E0,9.821832572E0
1.138821083E1,-4.129911804E-1,-9.311686249E0,-3.156635742E0,9.840854217E0
1.139820083E1,-3.875440979E-1,-9.293424225E0,-3.121309204E0,9.811243316E0
1.140819083E1,-3.887416077E-1,-9.282796326E0,-3.133134613E0,9.804996694E0
1.141818083E1,-3.784130859E-1,-9.263486481E0,-3.121758270E0,9.782676165E0
1.142817083E1,-3.847000122E-1,-9.283993835E0,-3.150797882E0,9.811628964E0
1.143816083E1,-4.146377563E-1,-9.271569672E0,-3.160976715E0,9.804371598E0
1.144815183E1,-4.330494690E-1,-9.264683990E0,-3.170407104E0,9.801703041E0
1.145814183E1,-4.454736328E-1,-9.259444885E0,-3.180585938E0,9.800606780E0
1.146813183E1,-4.272116089E-1,-9.254355469E0,-3.180436249E0,9.794936428E0
1.147812183E1,-4.233197021E-1,-9.262887726E0,-3.163222046E0,9.797257897E0
1.148811183E1,-4.293072510E-1,-9.263336792E0,-3.122357025E0,9.784826346E0
1.149810183E1,-3.881428528E-1,-9.283694458E0,-3.149750061E0,9.811144842E0
1.150809183E1,-3.719764709E-1,-9.313781891E0,-3.161425781E0,9.842739079E0
1.151808183E1,-3.290158081E-1,-9.330547028E0,-3.203787689E0,9.870745402E0
1.152807183E1,-3.421884155E-1,-9.302405548E0,-3.211421814E0,9.847084440E0
1.153805767E1,-3.576063538E-1,-9.281898193E0,-3.215762787E0,9.829681921E0
1.154804867E1,-3.456312561E-1,-9.316476288E0,-3.221750336E0,9.863866717E0
1.155803867E1,-3.691323853E-1,-9.302704926E0,-3.217858429E0,9.850441133E0
1.156802867E1,-3.962260437E-1,-9.249715118E0,-3.186573486E0,9.791244836E0
1.157801867E1,-4.002676392E-1,-9.266031189E0,-3.187920685E0,9.807261925E0
1.158800867E1,-3.365002441E-1,-9.264683990E0,-3.214265900E0,9.812191760E0
1.159799867E1,-3.474275208E-1,-9.266480255E0,-3.172652435E0,9.800718631E0
1.160798867E1,-3.644920349E-1,-9.261091461E0,-3.146157532E0,9.787695168E0
1.161797867E1,-3.517684937E-1,-9.245673523E0,-3.153641968E0,9.775053843E0
1.162796867E1,-3.745211792E-1,-9.260043640E0,-3.156935120E0,9.790552266E0
1.163795967E1,-4.355941772E-1,-9.251062317E0,-3.176843719E0,9.791028153E0
1.164794967E1,-4.296066284E-1,-9.267228699E0,-3.163371735E0,9.801684056E0
1.165793967E1,-4.218228149E-1,-9.266330566E0,-3.171305237E0,9.803060418E0
1.166792967E1,-4.436773682E-1,-9.280850372E0,-3.166066132E0,9.816058679E0
1.167791967E1,-4.444258118E-1,-9.279952240E0,-3.147654419E0,9.809319865E0
1.168790967E1,-4.055067444E-1,-9.283245392E0,-3.167862396E0,9.817251799E0
1.169789967E1,-3.799099731E-1,-9.288783875E0,-3.158432007E0,9.818428092E0
1.170788967E1,-3.875440979E-1,-9.287885742E0,-3.148103485E0,9.814558958E0
1.171787967E1,-4.206253052E-1,-9.276509399E0,-3.157533875E0,9.808189051E0
1.172787067E1,-4.095483398E-1,-9.270072784E0,-3.132086792E0,9.793464502E0
1.173786067E1,-4.132905579E-1,-9.283694458E0,-3.139271851E0,9.808813365E0
1.174785067E1,-4.085005188E-1,-9.284143524E0,-3.133433990E0,9.807170959E0
1.175784067E1,-4.031117249E-1,-9.246721344E0,-3.138523407E0,9.773161405E0
1.176783067E1,-3.965254211E-1,-9.225166168E0,-3.137176208E0,9.752066335E0
1.177782067E1,-3.797602844E-1,-9.222771149E0,-3.135829010E0,9.748699868E0
1.178781067E1,-3.941304016E-1,-9.256600800E0,-3.138972473E0,9.782287326E0
1.179780067E1,-4.189787292E-1,-9.263336792E0,-3.153192902E0,9.794262462E0
1.180779067E1,-4.087998962E-1,-9.267977142E0,-3.165766754E0,9.802275083E0
1.181778067E1,-3.957769775E-1,-9.265133057E0,-3.147355042E0,9.793118693E0
1.182777167E1,-4.023632813E-1,-9.259744263E0,-3.154390411E0,9.790553554E0
1.183776167E1,-4.153862000E-1,-9.262887726E0,-3.161276093E0,9.796290178E0
1.184775167E1,-4.035607910E-1,-9.251960449E0,-3.161725159E0,9.785608793E0
1.185774167E1,-4.061054993E-1,-9.256750488E0,-3.175795898E0,9.794796112E0
1.186773167E1,-3.769161987E-1,-9.263187103E0,-3.160527649E0,9.794775962E0
1.187772167E1,-3.782633972E-1,-9.242979126E0,-3.161425781E0,9.776009375E0
1.188771167E1,-3.870950317E-1,-9.258995819E0,-3.152893524E0,9.788747811E0
1.189770167E1,-3.863465881E-1,-9.283544769E0,-3.155438232E0,9.812759938E0
1.190769167E1,-3.811074829E-1,-9.270970917E0,-3.155138855E0,9.800563547E0
1.191768267E1,-3.827540588E-1,-9.267228699E0,-3.164569244E0,9.800128924E0
1.192767267E1,-3.933819580E-1,-9.292975159E0,-3.213816833E0,9.840871674E0
1.193766267E1,-3.814068604E-1,-9.298813019E0,-3.211721191E0,9.845229696E0
1.194765267E1,-3.893403625E-1,-9.289682007E0,-3.187770996E0,9.829123136E0
1.195764267E1,-3.872447205E-1,-9.279054108E0,-3.165766754E0,9.811874579E0
1.196763267E1,-3.881428528E-1,-9.287286987E0,-3.182831268E0,9.825210906E0
1.197762267E1,-3.677851868E-1,-9.311686249E0,-3.161425781E0,9.840598544E0
1.198761267E1,-3.803590393E-1,-9.297914886E0,-3.180436249E0,9.834178612E0
1.199760267E1,-3.724255371E-1,-9.283993835E0,-3.183879089E0,9.821829177E0
1.200759367E1,-3.480262756E-1,-9.279503174E0,-3.195704498E0,9.820530978E0
1.201758367E1,-3.586541748E-1,-9.282646637E0,-3.200793915E0,9.825540346E0
1.202757367E1,-3.733236694E-1,-9.260193329E0,-3.207529907E0,9.807079033E0
1.203756367E1,-3.941304016E-1,-9.261690216E0,-3.215613098E0,9.811952508E0
1.204755367E1,-3.905378723E-1,-9.245074768E0,-3.216810608E0,9.796519677E0
1.205754367E1,-3.814068604E-1,-9.243577881E0,-3.204236755E0,9.790624925E0
1.206753367E1,-3.721261597E-1,-9.235644379E0,-3.186872864E0,9.777104051E0
1.207752367E1,-3.370989990E-1,-9.261091461E0,-3.162623291E0,9.792019039E0
1.208751367E1,-3.261717224E-1,-9.278455353E0,-3.155737610E0,9.805855475E0
1.209750467E1,-3.291654968E-1,-9.300309906E0,-3.187471619E0,9.836873975E0
1.210749467E1,-3.321592712E-1,-9.301507416E0,-3.173400879E0,9.833556993E0
1.211748467E1,-3.356021118E-1,-9.307494965E0,-3.175496521E0,9.840013691E0
1.212747467E1,-3.378474426E-1,-9.300609283E0,-3.186573486E0,9.837160389E0
1.213746467E1,-3.185375977E-1,-9.299860840E0,-3.203787689E0,9.841398955E0
1.214745467E1,-3.212319946E-1,-9.305399323E0,-3.182980957E0,9.839970240E0
1.215744467E1,-3.129991150E-1,-9.291328583E0,-3.181334381E0,9.825866055E0
1.216743467E1,-3.023712158E-1,-9.280700684E0,-3.179837494E0,9.814998727E0
1.217742467E1,-2.677931213E-1,-9.310937805E0,-3.186124420E0,9.844626188E0
1.218741467E1,-2.704875183E-1,-9.305549011E0,-3.170407104E0,9.834525261E0
1.219740567E1,-2.784210205E-1,-9.295968933E0,-3.173251190E0,9.826600622E0
1.220739567E1,-2.957849121E-1,-9.277856598E0,-3.167563019E0,9.808137807E0
1.221738567E1,-2.874023438E-1,-9.286388855E0,-3.183130646E0,9.820994796E0
1.222737567E1,-3.168910217E-1,-9.285640411E0,-3.187920685E0,9.822747888E0
1.223736567E1,-3.387455750E-1,-9.271419983E0,-3.161725159E0,9.801555134E0
1.224735567E1,-3.320095825E-1,-9.281299438E0,-3.174748077E0,9.814875189E0
1.225734567E1,-3.308120728E-1,-9.267079010E0,-3.160527649E0,9.796791568E0
1.226733567E1,-2.787203979E-1,-9.252409515E0,-3.170407104E0,9.784490181E0
1.227732567E1,-2.498304749E-1,-9.266031189E0,-3.172053680E0,9.797125793E0
1.228731667E1,-2.474354553E-1,-9.252259827E0,-3.156635742E0,9.779053401E0
1.229730667E1,-2.586621094E-1,-9.274713135E0,-3.169359283E0,9.804695206E0
1.230729667E1,-2.728825378E-1,-9.292376404E0,-3.191513214E0,9.828961324E0
1.231728667E1,-3.013233948E-1,-9.298214264E0,-3.165916443E0,9.827034711E0
1.232727667E1,-3.141966248E-1,-9.310488739E0,-3.168012085E0,9.839726655E0
1.233726667E1,-3.330574036E-1,-9.306746521E0,-3.184926910E0,9.842266886E0
1.234725667E1,-3.351530457E-1,-9.304351501E0,-3.178041229E0,9.837846842E0
1.235724667E1,-2.972817993E-1,-9.284143524E0,-3.161425781E0,9.812151161E0
1.236723667E1,-2.785707092E-1,-9.268276520E0,-3.142714691E0,9.790567242E0
1.237722767E1,-2.836601257E-1,-9.264384613E0,-3.146905975E0,9.788375889E0
1.238721767E1,-2.755769348E-1,-9.262588348E0,-3.157533875E0,9.789867503E0
1.239720767E1,-2.921923828E-1,-9.260043640E0,-3.150049438E0,9.785529933E0
1.240719767E1,-3.086581421E-1,-9.282496948E0,-3.134631500E0,9.802343296E0
1.241718767E1,-3.192860413E-1,-9.279652863E0,-3.149001617E0,9.804596474E0
1.242717767E1,-3.294648743E-1,-9.281449127E0,-3.162174225E0,9.810871054E0
1.243716767E1,-3.367996216E-1,-9.294771423E0,-3.171754303E0,9.826812055E0
1.244715767E1,-3.076103210E-1,-9.277856598E0,-3.179089050E0,9.812229836E0
1.245714767E1,-3.210823059E-1,-9.261390839E0,-3.181484070E0,9.797871963E0
1.246713767E1,-3.353027344E-1,-9.265731812E0,-3.176544342E0,9.800849345E0
1.247712867E1,-3.294648743E-1,-9.268426208E0,-3.157533875E0,9.797055254E0
1.248711867E1,-3.492237854E-1,-9.257798309E0,-3.123404846E0,9.776729751E0
1.249710867E1,-3.396437073E-1,-9.276659088E0,-3.135679321E0,9.798175672E0
1.250709867E1,-3.174897766E-1,-9.275910645E0,-3.141517181E0,9.798594197E0
1.251708867E1,-3.291654968E-1,-9.276808777E0,-3.152444458E0,9.803338057E0
1.252707867E1,-3.221301270E-1,-9.259444885E0,-3.175346832E0,9.794075500E0
1.253706929E1,-3.254232788E-1,-9.298363953E0,-3.156036987E0,9.824766764E0
1.254705929E1,-3.468287659E-1,-9.269024963E0,-3.152743835E0,9.796678399E0
1.255704929E1,-3.279679871E-1,-9.270521851E0,-3.136577454E0,9.792254924E0
1.256703929E1,-3.402424622E-1,-9.289831696E0,-3.132984924E0,9.809807970E0
1.257703029E1,-3.339555359E-1,-9.320218506E0,-3.137774963E0,9.839899950E0
1.258702029E1,-3.359014893E-1,-9.305698700E0,-3.134182434E0,9.825067818E0
1.259701029E1,-3.206332397E-1,-9.277856598E0,-3.135978699E0,9.798764775E0
1.260700029E1,-3.234773254E-1,-9.285191345E0,-3.135679321E0,9.805707558E0
1.261699029E1,-3.173400879E-1,-9.316625977E0,-3.172502747E0,9.847080684E0
1.262698029E1,-3.421884155E-1,-9.314680023E0,-3.179238739E0,9.848244301E0
1.263697029E1,-3.490740967E-1,-9.311386871E0,-3.184777222E0,9.847161223E0
1.264696029E1,-3.580554199E-1,-9.298214264E0,-3.174748077E0,9.831786081E0
1.265695029E1,-3.430865479E-1,-9.304201813E0,-3.182382202E0,9.839381903E0
1.266694129E1,-3.062631226E-1,-9.292825470E0,-3.169209595E0,9.823150807E0
1.267693129E1,-3.189866638E-1,-9.238787842E0,-3.168012085E0,9.772064974E0
1.268692129E1,-3.097059631E-1,-9.257648621E0,-3.122656403E0,9.775017073E0
1.269691129E1,-3.103047180E-1,-9.258846130E0,-3.070864105E0,9.759750357E0
1.270690129E1,-3.183879089E-1,-9.273815002E0,-3.071013794E0,9.774259117E0
1.271689129E1,-3.152444458E-1,-9.253008270E0,-3.115920410E0,9.768648889E0
1.272688129E1,-3.234773254E-1,-9.261390839E0,-3.146007843E0,9.786488808E0
1.273687129E1,-3.242257690E-1,-9.282796326E0,-3.156036987E0,9.809994875E0
1.274686129E1,-3.299139404E-1,-9.297016754E0,-3.146007843E0,9.820424079E0
1.275685229E1,-3.505709839E-1,-9.317224731E0,-3.137625275E0,9.837594679E0
1.276684229E1,-3.588038635E-1,-9.305998077E0,-3.129392395E0,9.824634201E0
1.277683229E1,-3.465293884E-1,-9.305399323E0,-3.090323639E0,9.811250652E0
1.278682229E1,-3.222798157E-1,-9.317973175E0,-3.085982666E0,9.820986579E0
1.279681229E1,-3.240760803E-1,-9.306596832E0,-3.103496246E0,9.815776019E0
1.280680229E1,-3.167413330E-1,-9.272767181E0,-3.129991150E0,9.791903843E0
1.281679229E1,-2.992277527E-1,-9.262139282E0,-3.113375702E0,9.775984329E0
1.282678229E1,-3.079096985E-1,-9.271419983E0,-3.120111694E0,9.787192338E0
1.283677229E1,-3.156935120E-1,-9.258247375E0,-3.124901733E0,9.776493119E0
1.284676229E1,-3.466790771E-1,-9.266629944E0,-3.165766754E0,9.798606842E0
1.285675329E1,-3.570075989E-1,-9.289232941E0,-3.141966248E0,9.812708849E0
1.286674329E1,-3.505709839E-1,-9.298962708E0,-3.152145081E0,9.824949163E0
1.287673329E1,-3.414399719E-1,-9.294771423E0,-3.150498505E0,9.820132275E0
1.288672329E1,-3.345542908E-1,-9.298813019E0,-3.147055664E0,9.822617242E0
1.289671329E1,-3.243754578E-1,-9.290131073E0,-3.134930878E0,9.810175656E0
1.290670329E1,-3.233276367E-1,-9.277108154E0,-3.137325897E0,9.798575930E0
1.291669329E1,-3.239263916E-1,-9.275910645E0,-3.125051422E0,9.793538328E0
1.292668329E1,-3.168910217E-1,-9.253607025E0,-3.111280060E0,9.767790257E0
1.293667329E1,-3.426374817E-1,-9.237889709E0,-3.118914185E0,9.756209941E0
1.294666329E1,-3.528163147E-1,-9.265432434E0,-3.091371460E0,9.773908893E0
1.295665429E1,-3.793112183E-1,-9.273365936E0,-3.074007568E0,9.776948160E0
1.296664429E1,-4.011657715E-1,-9.269474030E0,-3.061733093E0,9.770275958E0
1.297663429E1,-4.179309082E-1,-9.278305664E0,-3.025209045E0,9.767984030E0
1.298662429E1,-4.412823486E-1,-9.303453369E0,-3.020568695E0,9.791466180E0
1.299661429E1,-4.818479919E-1,-9.326954498E0,-3.030897217E0,9.818889736E0
1.300660429E1,-4.935237122E-1,-9.329499207E0,-3.021915894E0,9.819118940E0
1.301659429E1,-4.755610657E-1,-9.307494965E0,-3.026406555E0,9.798712032E0
1.302658429E1,-4.417314148E-1,-9.292376404E0,-3.061134338E0,9.793565710E0
1.303657429E1,-4.206253052E-1,-9.254505157E0,-3.089874573E0,9.765762450E0
1.304656529E1,-4.210743713E-1,-9.188642120E0,-3.066074066E0,9.695837139E0
1.305655529E1,-4.496649170E-1,-9.145382080E0,-3.048111420E0,9.650450516E0
1.306654529E1,-4.888833618E-1,-9.153914337E0,-3.023412781E0,9.652677322E0
1.307653529E1,-4.812492371E-1,-9.170679474E0,-3.034190369E0,9.671570402E0
1.308652529E1,-4.623884583E-1,-9.182355194E0,-3.046614532E0,9.685623888E0
1.309651529E1,-4.671784973E-1,-9.206305389E0,-3.080593872E0,9.719278434E0
1.310650529E1,-4.715194702E-1,-9.230255585E0,-3.099304962E0,9.748109561E0
1.311649529E1,-4.878355408E-1,-9.259744263E0,-3.098107452E0,9.776457288E0
1.312648529E1,-4.334985352E-1,-9.262887726E0,-3.119812317E0,9.783774266E0
1.313647529E1,-4.134402466E-1,-9.228010254E0,-3.108885040E0,9.746397913E0
1.314646629E1,-3.149450684E-1,-9.330996094E0,-3.136278076E0,9.849005974E0
1.315645629E1,-4.872367859E-1,-9.092841339E0,-3.049907684E0,9.603077641E0
1.316644629E1,-3.806584167E-1,-9.098679199E0,-3.005001068E0,9.589624363E0
1.317643629E1,-3.722758484E-1,-9.208550720E0,-2.955304413E0,9.678316995E0
1.318642629E1,-3.480262756E-1,-9.132808228E0,-2.999312897E0,9.619001313E0
1.319641629E1,-2.974314880E-1,-9.127120056E0,-2.979853363E0,9.605847806E0
1.320640629E1,-1.752854919E-1,-9.264983368E0,-2.940036163E0,9.721854476E0
1.321639629E1,-2.225871277E-1,-9.275162201E0,-2.951562195E0,9.736010388E0
1.322638629E1,-2.619552612E-1,-9.030121765E0,-2.989882507E0,9.515835069E0
1.323637629E1,-2.143542480E-1,-9.153614960E0,-3.038231964E0,9.647044524E0
1.324636729E1,-2.451901245E-1,-9.102571106E0,-3.011886749E0,9.591057331E0
1.325635729E1,-2.490820312E-1,-8.819509735E0,-2.996019745E0,9.317828510E0
1.326634729E1,-3.435356140E-1,-8.816815338E0,-3.117566986E0,9.358069958E0
1.327633729E1,-3.303630066E-1,-8.961863708E0,-3.060984650E0,9.475957359E0
1.328632729E1,-2.511776733E-1,-8.829538879E0,-3.040626984E0,9.341801727E0
1.329631729E1,-4.580474854E-2,-8.612340546E0,-3.051554260E0,9.137094240E0
1.330630729E1,9.804611206E-2,-8.454418945E0,-2.911146240E0,8.942124198E0
1.331629729E1,1.429527283E-1,-8.298293610E0,-2.838397522E0,8.771465830E0
1.332628729E1,1.525328064E-1,-8.013286285E0,-2.760260010E0,8.476736322E0
1.333627829E1,1.712438965E-1,-7.601193237E0,-2.657274170E0,8.054102626E0
1.334626829E1,1.252894592E-1,-7.201674042E0,-2.471809845E0,7.615093589E0
1.335625829E1,1.082249451E-1,-6.816225586E0,-2.394121399E0,7.225265473E0
1.336624829E1,1.377136230E-1,-6.451434174E0,-2.284698944E0,6.845423084E0
1.337623829E1,1.194515991E-1,-6.206244049E0,-2.243684235E0,6.600443381E0
1.338622829E1,9.714797974E-2,-6.038892059E0,-2.279160461E0,6.455402965E0
1.339621829E1,1.169068909E-1,-5.907165985E0,-2.358046417E0,6.361498259E0
1.340620829E1,2.466870117E-1,-5.856870575E0,-2.412533112E0,6.339093265E0
1.341619829E1,4.285588074E-1,-6.003864899E0,-2.756368103E0,6.620243311E0
1.342618829E1,3.273692322E-1,-6.632108459E0,-3.698359222E0,7.600650904E0
1.343617929E1,2.579136658E-1,-7.659721527E0,-4.674928436E0,8.977349788E0
1.344616929E1,3.369493103E-1,-9.381590881E0,-5.503904572E0,1.088212975E1
1.345615929E1,4.634362793E-1,-1.221534805E1,-6.885681152E0,1.403004299E1
1.346614929E1,1.404080200E0,-1.535117706E1,-8.209528198E0,1.746500592E1
1.347613929E1,2.034269714E0,-1.930894684E1,-9.382039948E0,2.156377413E1
1.348612929E1,1.700912933E0,-2.411949326E1,-1.000429596E1,2.616732691E1
1.349611929E1,9.493258667E-1,-2.854548935E1,-1.127350662E1,3.070566940E1
1.350610929E1,-1.097068634E0,-3.230776566E1,-1.397598679E1,3.521822664E1
1.351609929E1,-2.282154236E0,-3.506203812E1,-1.709070969E1,3.907233167E1
1.352608929E1,-2.239492950E0,-3.357802414E1,-1.595277603E1,3.724231594E1
1.353608029E1,-1.424587555E0,-2.617681503E1,-1.135553604E1,2.856927185E1
1.354607079E1,-3.576063538E-1,-1.976444962E1,-8.725505219E0,2.160777157E1
1.355606079E1,6.327342224E-1,-1.557585983E1,-6.858886871E0,1.703091575E1
1.356605079E1,8.544232178E-1,-1.183244431E1,-4.637805634E0,1.273758291E1
1.357604079E1,4.296066284E-1,-8.520431671E0,-3.134631500E0,9.088907105E0
1.358603079E1,-1.736389160E-2,-6.227350159E0,-2.559826813E0,6.732971470E0
1.359602079E1,-2.106120300E-1,-4.355792084E0,-1.731150055E0,4.691925257E0
1.360601079E1,-3.674858093E-1,-2.751278687E0,-1.142274628E0,3.001561520E0
1.361600079E1,-3.032693481E-1,-1.512604523E0,-8.083190918E-1,1.741644193E0
1.362599079E1,4.854405212E-1,-5.677693176E-1,-5.435197449E-1,9.238117832E-1
1.363598179E1,7.548802185E-1,-8.307723999E-2,-4.799020386E-1,8.983606952E-1
1.364597179E1,5.031037903E-1,4.317022705E-1,3.001258850E-1,7.277058616E-1
1.365596179E1,4.920268250E-1,7.562274170E-1,6.978488159E-1,1.140597770E0
1.366595179E1,2.143542480E-1,7.322772217E-1,1.038240967E0,1.288457209E0
1.367594179E1,7.873626709E-2,6.441105652E-1,1.735041962E0,1.852416915E0
1.368593179E1,-6.975494385E-2,4.634362793E-1,1.822011108E0,1.881319594E0
1.369592179E1,-2.161505127E-1,5.818400574E-1,1.287322998E0,1.429146388E0
1.370591179E1,-1.369651794E-1,7.003935242E-1,1.278790741E0,1.464450856E0
1.371590179E1,-3.646417236E-1,1.094823303E0,1.272354126E-1,1.160943798E0
1.372589279E1,-5.641767883E-1,1.531165924E0,-2.269281006E-1,1.647501411E0
1.373588279E1,-6.253994751E-1,1.785636749E0,-3.866459656E-1,1.931092490E0
1.374587279E1,-4.936734009E-1,1.635199585E0,-6.698570251E-1,1.834747815E0
1.375586279E1,-2.790197754E-1,1.263073425E0,-5.471122742E-1,1.404470845E0
1.376585279E1,-1.622625732E-1,9.574090576E-1,-3.616479492E-1,1.036219323E0
1.377584279E1,-1.134640503E-1,7.607180786E-1,-1.431024170E-1,7.823326579E-1
1.378583279E1,-2.050735474E-2,5.897735596E-1,2.032772827E-1,6.241594803E-1
1.379582279E1,7.244934082E-2,5.424719238E-1,4.549040222E-1,7.116616925E-1
1.380581279E1,1.588197327E-1,5.770500183E-1,6.069877625E-1,8.524344989E-1
1.381580279E1,3.082090759E-1,6.457571411E-1,6.155200195E-1,9.438538098E-1
1.382579379E1,4.739144897E-1,7.382647705E-1,5.514532471E-1,1.036209679E0
1.383578379E1,5.104385376E-1,7.538323975E-1,4.599934387E-1,1.020002327E0
1.384577379E1,4.305047607E-1,7.466473389E-1,3.752696228E-1,9.400233441E-1
1.385576379E1,4.917274475E-1,6.903643799E-1,2.487826538E-1,8.833411960E-1
1.386575379E1,6.756948853E-1,4.411326599E-1,-4.086502075E-2,8.079799202E-1
1.387574379E1,8.186476135E-1,-1.481918335E-1,-1.519340515E-1,8.457119431E-1
1.388573379E1,7.946974182E-1,-6.466552734E-1,-2.799179077E-1,1.062102191E0
1.389572379E1,1.099613342E0,-1.320104828E0,-4.474195862E-1,1.775390252E0
1.390571379E1,1.542991333E0,-2.912343750E0,-4.513114929E-1,3.326597426E0
1.391570479E1,2.011966095E0,-7.631729736E0,-1.176703033E0,7.979720319E0
1.392569479E1,5.336103516E0,-1.944306793E1,1.543739777E0,2.022102925E1
1.393568479E1,-5.364843750E-1,-4.649481354E1,-2.516716461E0,4.656596786E1
1.394567479E1,-1.752241196E1,-8.887767792E1,-1.833417389E1,9.242520481E1
1.395566479E1,-1.253119125E1,-7.823660614E1,-1.709355377E1,8.105668927E1
1.396565479E1,-1.261950760E1,-3.339705048E1,-6.390061798E0,3.626910314E1
1.397564479E1,-1.500195328E1,-1.504745865E1,-3.773053894E0,2.158055953E1
1.398563479E1,-1.080872314E1,-3.605103149E0,-2.702629852E0,1.171022941E1
1.399562479E1,-1.123279129E1,2.274669800E0,-3.996988220E0,1.213777730E1
1.400561479E1,-7.237299957E0,-2.723885651E0,-9.377249908E0,1.215445925E1
1.401560479E1,-5.946833496E0,-1.052536240E1,-9.056017914E0,1.510495093E1
1.402559579E1,-4.999752960E0,-1.264944534E1,-4.356241150E0,1.428225592E1
1.403558579E1,-3.673959961E0,-1.171059769E1,-2.183808746E0,1.246615821E1
1.404557579E1,-2.896776123E0,-8.819360046E0,-2.866838379E0,9.715512638E0
1.405556579E1,-2.362986145E0,-6.002068634E0,-2.470013580E0,6.907206273E0
1.406555579E1,-2.421215057E0,-5.023703156E0,-1.456920319E0,5.763895607E0
1.407554579E1,-2.160157928E0,-4.710404663E0,-3.812571716E-1,5.196109256E0
1.408553579E1,-1.569785614E0,-4.063899078E0,2.516267395E-1,4.363807811E0
1.409552579E1,-8.756790161E-1,-3.392395477E0,3.517684937E-1,3.521207447E0
1.410551579E1,-3.909869385E-1,-2.814746704E0,-6.227050781E-2,2.842454469E0
1.411550679E1,-3.442840576E-3,-2.474653931E0,-5.010081482E-1,2.524862985E0
1.412549679E1,-5.631289673E-1,-2.790048065E0,-6.750961304E-1,2.925275581E0
1.413548679E1,-9.624984741E-1,-3.635639648E0,-1.116827545E0,3.923210768E0
1.414547679E1,-1.062939606E0,-4.431534576E0,-1.499880981E0,4.797705938E0
1.415546679E1,-1.154249725E0,-5.698649597E0,-1.835034027E0,6.097068930E0
1.416545679E1,-1.348845062E0,-7.399861908E0,-1.774410095E0,7.728251448E0
1.417544679E1,-1.708996124E0,-8.852890320E0,-1.627715149E0,9.162084445E0
1.418543679E1,-1.928739166E0,-1.000369720E1,-1.603166199E0,1.031329891E1
1.419542679E1,-2.406545563E0,-1.085527634E1,-1.630110168E0,1.123769305E1
1.420541679E1,-3.260370026E0,-1.128608047E1,-1.681902466E0,1.186736791E1
1.421540779E1,-4.140539703E0,-1.148247208E1,-1.828298035E0,1.234236232E1
1.422539779E1,-5.067711639E0,-1.154638916E1,-1.956132202E0,1.276037841E1
1.423538779E1,-5.876779175E0,-1.166898422E1,-2.056273956E0,1.322611012E1
1.424537779E1,-5.871540070E0,-1.118144806E1,-1.745520172E0,1.274937662E1
1.425536779E1,-5.347180481E0,-9.729467468E0,-1.194665680E0,1.116611402E1
1.426535779E1,-4.727618866E0,-8.489745483E0,-1.276695099E0,9.800821848E0
1.427534779E1,-4.108656006E0,-8.192912750E0,-1.628762970E0,9.309014036E0
1.428533779E1,-3.672313385E0,-8.401429138E0,-1.839524689E0,9.351670880E0
1.429532779E1,-3.361559601E0,-8.319549408E0,-1.850302277E0,9.161801341E0
1.430531779E1,-3.150947571E0,-8.177794189E0,-2.074685669E0,9.006059573E0
1.431530879E1,-3.006947021E0,-8.065677338E0,-1.935026093E0,8.822766419E0
1.432529879E1,-3.018922119E0,-8.193661194E0,-1.772015076E0,8.910107292E0
1.433528879E1,-3.240012360E0,-8.405919800E0,-1.978735199E0,9.223478777E0
1.434527879E1,-3.588787079E0,-8.626560974E0,-2.078427887E0,9.571667014E0
1.435526879E1,-3.914360046E0,-8.900191956E0,-1.968107300E0,9.920134967E0
1.436525879E1,-4.159550171E0,-9.183552704E0,-1.840273132E0,1.024822439E1
1.437524879E1,-4.258195038E0,-9.408834229E0,-1.736538849E0,1.047253330E1
1.438523879E1,-4.203408966E0,-9.469009094E0,-1.623224487E0,1.048645020E1
1.439522879E1,-4.030518494E0,-9.352700958E0,-1.494492188E0,1.029327943E1
1.440521879E1,-3.794309692E0,-9.251062317E0,-1.384470978E0,1.009433999E1
1.441520979E1,-3.594924316E0,-9.150471497E0,-1.201251984E0,9.904424051E0
1.442519979E1,-3.505709839E0,-9.060358887E0,-1.103505249E0,9.777414201E0
1.443518979E1,-3.426374817E0,-8.953032074E0,-1.119671631E0,9.651450267E0
1.444517979E1,-3.357967072E0,-8.840166779E0,-1.246158600E0,9.538207525E0
1.445516979E1,-3.366649017E0,-8.773405609E0,-1.467248840E0,9.511035209E0
1.446515979E1,-3.428171082E0,-8.680149536E0,-1.632654877E0,9.474329258E0
1.447514979E1,-3.487298126E0,-8.632398834E0,-1.724863129E0,9.468617146E0
1.448513979E1,-3.575165405E0,-8.653355255E0,-1.809886322E0,9.536144574E0
1.449512979E1,-3.649261322E0,-8.712482300E0,-1.872156830E0,9.629611997E0
1.450511979E1,-3.761827240E0,-8.809630280E0,-1.843865662E0,9.755038207E0
1.451511079E1,-3.737577667E0,-8.922944641E0,-1.763033752E0,9.833448830E0
1.452510079E1,-3.703897705E0,-9.013805695E0,-1.615141296E0,9.878068268E0
1.453509079E1,-3.673061829E0,-9.086554413E0,-1.492695923E0,9.913878929E0
1.454508042E1,-3.709436188E0,-8.992699585E0,-1.501078491E0,9.842855241E0
1.455507042E1,-3.769012299E0,-8.986861725E0,-1.489702148E0,9.858415180E0
1.456506042E1,-3.804338837E0,-9.045689392E0,-1.578168182E0,9.939220562E0
1.457505042E1,-3.826043701E0,-9.006620636E0,-1.684297485E0,9.929485571E0
1.458504042E1,-3.794010315E0,-8.975186005E0,-1.731000366E0,9.896708562E0
1.459503042E1,-3.783083038E0,-9.003028107E0,-1.737886047E0,9.918995931E0
1.460502042E1,-3.768862610E0,-9.048683167E0,-1.706451416E0,9.949621543E0
1.461501142E1,-3.770209808E0,-9.052874451E0,-1.651515656E0,9.944673035E0
1.462500142E1,-3.794160004E0,-8.967102814E0,-1.531465302E0,9.856468382E0
1.463499142E1,-3.796405334E0,-8.932973785E0,-1.394200745E0,9.805840598E0
1.464498142E1,-3.831582184E0,-8.837023315E0,-1.422192535E0,9.736356337E0
1.465497142E1,-3.920197906E0,-8.760831757E0,-1.414259033E0,9.701559323E0
1.466496142E1,-3.951931915E0,-8.713230743E0,-1.471889191E0,9.680114340E0
1.467495142E1,-3.950135651E0,-8.762628021E0,-1.617835693E0,9.747031026E0
1.468494142E1,-3.942800903E0,-8.801696777E0,-1.791474609E0,9.809430483E0
1.469493142E1,-3.884272614E0,-8.792715454E0,-1.833686829E0,9.785797166E0
1.470492142E1,-3.813769226E0,-8.845106506E0,-1.967059479E0,9.831076635E0
1.471491242E1,-3.719764709E0,-8.857380981E0,-2.015259247E0,9.815860491E0
1.472490242E1,-3.683090973E0,-8.856782227E0,-1.934726715E0,9.785239802E0
1.473489242E1,-3.661086731E0,-8.863518219E0,-1.853445740E0,9.767331897E0
1.474488242E1,-3.698059845E0,-8.895850983E0,-1.723366241E0,9.786817794E0
1.475487242E1,-3.738775177E0,-8.877588959E0,-1.590742035E0,9.763221075E0
1.476486242E1,-3.740721130E0,-8.895551605E0,-1.496138763E0,9.765360420E0
1.477485242E1,-3.695814514E0,-8.887169037E0,-1.479373627E0,9.738037007E0
1.478484242E1,-3.698808289E0,-8.868158569E0,-1.503024445E0,9.725456372E0
1.479483242E1,-3.677552490E0,-8.913364563E0,-1.554667053E0,9.766752265E0
1.480482242E1,-3.703897705E0,-8.932973785E0,-1.601070557E0,9.802056202E0
1.481481342E1,-3.719914398E0,-8.938362579E0,-1.625619507E0,9.817063080E0
1.482480342E1,-3.717968445E0,-8.927734680E0,-1.625469818E0,9.806624700E0
1.483479342E1,-3.739224243E0,-8.929980011E0,-1.617386627E0,9.815410355E0
1.484478342E1,-3.730093231E0,-8.933273163E0,-1.611399078E0,9.813947825E0
1.485477342E1,-3.726500702E0,-8.906778259E0,-1.590592346E0,9.785064663E0
1.486476342E1,-3.729344788E0,-8.905730438E0,-1.555565186E0,9.779561863E0
1.487475342E1,-3.759581909E0,-8.920250244E0,-1.532962189E0,9.800780256E0
1.488474342E1,-3.802692261E0,-8.949439545E0,-1.524729309E0,9.842648834E0
1.489473342E1,-3.847299500E0,-8.981622620E0,-1.502126312E0,9.885729198E0
1.490472342E1,-3.867208099E0,-8.998687134E0,-1.489552460E0,9.907090145E0
1.491471442E1,-3.872896271E0,-8.973539429E0,-1.484013977E0,9.885647823E0
1.492470442E1,-3.865711212E0,-8.928782501E0,-1.505269775E0,9.845441444E0
1.493469442E1,-3.897594910E0,-8.901239777E0,-1.522034912E0,9.835644662E0
1.494468442E1,-3.929927673E0,-8.878487091E0,-1.563798065E0,9.834496883E0
1.495467442E1,-3.945644989E0,-8.861721954E0,-1.606908417E0,9.832618422E0
1.496466442E1,-3.955674133E0,-8.855285339E0,-1.654958496E0,9.838817201E0
1.497465442E1,-3.965254211E0,-8.832532654E0,-1.677561493E0,9.826041248E0
1.498464442E1,-3.952530670E0,-8.825197906E0,-1.644031219E0,9.808641875E0
1.499463442E1,-3.931125183E0,-8.828640747E0,-1.610800323E0,9.797618095E0
1.500462442E1,-3.915856934E0,-8.856782227E0,-1.595831451E0,9.814438596E0
1.501461542E1,-3.898193665E0,-8.857530670E0,-1.582958221E0,9.805994093E0
1.502460542E1,-3.879183197E0,-8.879684601E0,-1.562600555E0,9.815221922E0
1.503459542E1,-3.884871368E0,-8.922944641E0,-1.560055847E0,9.856213313E0
1.504458542E1,-3.899091797E0,-8.953331451E0,-1.556313629E0,9.888739709E0
1.505457542E1,-3.929328918E0,-8.952732697E0,-1.572929077E0,9.902785182E0
1.506456542E1,-3.947291565E0,-8.947194214E0,-1.571132813E0,9.904637970E0
1.507455542E1,-3.942950592E0,-8.966953125E0,-1.582060089E0,9.922500786E0
1.508454542E1,-3.937711487E0,-8.938063202E0,-1.607956238E0,9.898488209E0
1.509453542E1,-3.917503510E0,-8.905730438E0,-1.612446899E0,9.861990336E0
1.510452542E1,-3.908372498E0,-8.904981995E0,-1.631756744E0,9.860867608E0
1.511451642E1,-3.920946350E0,-8.941506042E0,-1.636097717E0,9.899553845E0
1.512450642E1,-3.911665649E0,-8.948840790E0,-1.591340790E0,9.895213244E0
1.513449642E1,-3.904630280E0,-8.915909271E0,-1.534159698E0,9.853589282E0
1.514448642E1,-3.865561523E0,-8.897497559E0,-1.512005768E0,9.818054295E0
1.515447642E1,-3.831731873E0,-8.898246002E0,-1.528621216E0,9.808039247E0
1.516446642E1,-3.815715179E0,-8.900940399E0,-1.559606781E0,9.809117984E0
1.517445642E1,-3.770359497E0,-8.860524445E0,-1.593735809E0,9.760353375E0
1.518444642E1,-3.752995605E0,-8.832682343E0,-1.617386627E0,9.732275833E0
1.519443642E1,-3.739673309E0,-8.818312225E0,-1.620829468E0,9.714673187E0
1.520442642E1,-3.731889496E0,-8.813821564E0,-1.607507172E0,9.705386601E0
1.521441742E1,-3.795956268E0,-8.842861176E0,-1.577270050E0,9.751577235E0
1.522440742E1,-3.816912689E0,-8.818012848E0,-1.562899933E0,9.734928313E0
1.523439742E1,-3.830234985E0,-8.844208374E0,-1.543141022E0,9.760737985E0
1.524438742E1,-3.859873352E0,-8.875643005E0,-1.572480011E0,9.805526729E0
1.525437742E1,-3.896098022E0,-8.901988220E0,-1.598076782E0,9.847782668E0
1.526436742E1,-3.915856934E0,-8.898246002E0,-1.597777405E0,9.852188086E0
1.527435742E1,-3.903133392E0,-8.884474640E0,-1.626817017E0,9.839454940E0
1.528434742E1,-3.867357788E0,-8.911418610E0,-1.629960480E0,9.850208580E0
1.529433742E1,-3.810176697E0,-8.942853241E0,-1.613644409E0,9.853726139E0
1.530432742E1,-3.799698486E0,-8.953630829E0,-1.581910400E0,9.854321596E0
1.531431842E1,-3.804937592E0,-8.956325226E0,-1.583107910E0,9.858982822E0
1.532430842E1,-3.806284790E0,-8.940907288E0,-1.552571411E0,9.840635397E0
1.533429842E1,-3.805835724E0,-8.922046509E0,-1.531465302E0,9.820014533E0
1.534428842E1,-3.839365997E0,-8.908424835E0,-1.511257324E0,9.817569099E0
1.535427842E1,-3.873045959E0,-8.899593201E0,-1.520837402E0,9.824265395E0
1.536426842E1,-3.876189423E0,-8.888665924E0,-1.522184601E0,9.815817455E0
1.537425842E1,-3.885021057E0,-8.901988220E0,-1.516646118E0,9.830513635E0
1.538424842E1,-3.889212341E0,-8.894803162E0,-1.529669037E0,9.827684533E0
1.539423842E1,-3.876189423E0,-8.871451721E0,-1.520538025E0,9.799976325E0
1.540422842E1,-3.857777710E0,-8.869056702E0,-1.515897675E0,9.789819273E0
1.541421942E1,-3.847149811E0,-8.869356079E0,-1.504820709E0,9.784197683E0
1.542420942E1,-3.873944092E0,-8.903934174E0,-1.487905884E0,9.823510091E0
1.543419942E1,-3.869752808E0,-8.902736664E0,-1.436113586E0,9.813059112E0
1.544418942E1,-3.871698761E0,-8.902287598E0,-1.420845337E0,9.811196524E0
1.545417942E1,-3.840114441E0,-8.858728180E0,-1.414708099E0,9.758326849E0
1.546416942E1,-3.807033234E0,-8.828491058E0,-1.450483704E0,9.723150692E0
1.547415942E1,-3.821403351E0,-8.840466156E0,-1.468596039E0,9.742368282E0
1.548414942E1,-3.861819305E0,-8.870703278E0,-1.482217712E0,9.787747153E0
1.549413942E1,-3.864064636E0,-8.897198181E0,-1.471589813E0,9.811050278E0
1.550412942E1,-3.853137360E0,-8.895102539E0,-1.454525299E0,9.802303838E0
1.551412042E1,-3.840264130E0,-8.890911255E0,-1.438358917E0,9.791057548E0
1.552411042E1,-3.851640472E0,-8.877289581E0,-1.439855804E0,9.783383330E0
1.553410042E1,-3.837270355E0,-8.867859192E0,-1.484912109E0,9.775916039E0
1.554409008E1,-3.868555298E0,-8.859027557E0,-1.554367676E0,9.791023860E0
1.555408008E1,-3.866459656E0,-8.831335144E0,-1.590592346E0,9.770976139E0
1.556407008E1,-3.888314209E0,-8.850944366E0,-1.612147522E0,9.800878695E0
1.557406008E1,-3.895050201E0,-8.856931915E0,-1.570234680E0,9.802157720E0
1.558405008E1,-3.901636505E0,-8.871302032E0,-1.529219971E0,9.811283346E0
1.559404008E1,-3.869603119E0,-8.906329193E0,-1.506018219E0,9.826729816E0
1.560403008E1,-3.927532654E0,-8.835825806E0,-1.525777130E0,9.789041131E0
1.561402108E1,-3.959116974E0,-8.851992188E0,-1.506317596E0,9.813325919E0
1.562401108E1,-3.907923431E0,-8.880732422E0,-1.528172150E0,9.822147627E0
1.563400108E1,-3.961961060E0,-8.885971527E0,-1.571432190E0,9.855304386E0
1.564399108E1,-3.983965302E0,-8.887917480E0,-1.572330322E0,9.866067064E0
1.565398108E1,-3.970493317E0,-8.924740906E0,-1.543440399E0,9.889288431E0
1.566397108E1,-3.980821838E0,-8.988508301E0,-1.539847870E0,9.950444987E0
1.567396108E1,-3.958817596E0,-8.967551880E0,-1.516945496E0,9.919190850E0
1.568395108E1,-3.929478607E0,-8.947942657E0,-1.501976624E0,9.887487735E0
1.569394108E1,-3.884272614E0,-8.919651489E0,-1.547931061E0,9.851083544E0
1.570393108E1,-3.856430511E0,-8.918004913E0,-1.577719116E0,9.843376734E0
1.571392108E1,-3.861220551E0,-8.895401917E0,-1.588197327E0,9.826472925E0
1.572391208E1,-3.868106232E0,-8.869954834E0,-1.593885498E0,9.807079869E0
1.573390208E1,-3.896846466E0,-8.863817596E0,-1.582808533E0,9.811113984E0
1.574389208E1,-3.910019073E0,-8.870104523E0,-1.544787598E0,9.815975352E0
1.575388208E1,-3.881129150E0,-8.883127441E0,-1.524878998E0,9.813173420E0
1.576387208E1,-3.862418060E0,-8.902886353E0,-1.489103394E0,9.818201851E0
1.577386208E1,-3.850143585E0,-8.909173279E0,-1.473386078E0,9.816712315E0
1.578385208E1,-3.829785919E0,-8.931925964E0,-1.505868530E0,9.834337886E0
1.579384208E1,-3.854035492E0,-8.959468689E0,-1.510508881E0,9.869513962E0
1.580383208E1,-3.861968994E0,-8.951984253E0,-1.521436157E0,9.867501941E0
1.581382308E1,-3.867208099E0,-8.932524719E0,-1.540895691E0,9.854930536E0
1.582381308E1,-3.879931641E0,-8.919950867E0,-1.526375885E0,9.846279315E0
1.583380308E1,-3.887565765E0,-8.911418610E0,-1.517095184E0,9.840128404E0
1.584379308E1,-3.884571991E0,-8.904532928E0,-1.502276001E0,9.830434345E0
1.585378308E1,-3.901935883E0,-8.913214874E0,-1.518891449E0,9.847717211E0
1.586377308E1,-3.907624054E0,-8.878187714E0,-1.528022461E0,9.819704449E0
1.587376308E1,-3.909270630E0,-8.881331177E0,-1.555265808E0,9.827476383E0
1.588375308E1,-3.899690552E0,-8.884025574E0,-1.547032928E0,9.824805732E0
1.589374308E1,-3.893703003E0,-8.890911255E0,-1.550176392E0,9.829154229E0
1.590373308E1,-3.911366272E0,-8.844657440E0,-1.560953979E0,9.796087417E0
1.591372308E1,-3.880680084E0,-8.801996155E0,-1.532363434E0,9.740788054E0
1.592371408E1,-3.866309967E0,-8.803043976E0,-1.534758453E0,9.736396639E0
1.593370408E1,-3.875590668E0,-8.821006622E0,-1.527423706E0,9.755172168E0
1.594369408E1,-3.905229034E0,-8.849297791E0,-1.528321838E0,9.792683638E0
1.595368408E1,-3.946094055E0,-8.895701294E0,-1.541494446E0,9.852987614E0
1.596367408E1,-3.956721954E0,-8.918004913E0,-1.544488220E0,9.877849165E0
1.597366408E1,-3.945345612E0,-8.936865692E0,-1.516646118E0,9.886027303E0
1.598365408E1,-3.896397400E0,-8.904981995E0,-1.502874756E0,9.835611295E0
1.599364408E1,-3.892954559E0,-8.900940399E0,-1.482816467E0,9.827541904E0
1.600363408E1,-3.880081329E0,-8.883726196E0,-1.484313354E0,9.807079503E0
1.601362408E1,-3.879332886E0,-8.863817596E0,-1.503174133E0,9.791630022E0
1.602361508E1,-3.864813080E0,-8.841064911E0,-1.542392578E0,9.771396203E0
1.603360508E1,-3.879332886E0,-8.840316467E0,-1.544787598E0,9.776849574E0
1.604359508E1,-3.869902496E0,-8.846304016E0,-1.545236664E0,9.778598899E0
1.605358508E1,-3.877386932E0,-8.853638763E0,-1.528172150E0,9.785517814E0
1.606357508E1,-3.886517944E0,-8.863069153E0,-1.518143005E0,9.796110183E0
1.607356508E1,-3.887865143E0,-8.855135651E0,-1.518592072E0,9.789537509E0
1.608355508E1,-3.865860901E0,-8.812174988E0,-1.502425690E0,9.739434864E0
1.609354508E1,-3.899391174E0,-8.853938141E0,-1.546284485E0,9.797370455E0
1.610353508E1,-3.893852692E0,-8.953780518E0,-1.592687988E0,9.892872655E0
1.611352508E1,-3.897295532E0,-8.899742889E0,-1.581161957E0,9.843495776E0
1.612351608E1,-3.921694794E0,-8.873846741E0,-1.564247131E0,9.827090878E0
1.613350608E1,-3.930975494E0,-8.865314484E0,-1.574875031E0,9.824795193E0
1.614349608E1,-3.920946350E0,-8.874894562E0,-1.554517365E0,9.826194482E0
1.615348608E1,-3.895499268E0,-8.859626312E0,-1.535207520E0,9.799222166E0
1.616347608E1,-3.894301758E0,-8.865164795E0,-1.553469543E0,9.806630443E0
1.617346608E1,-3.892505493E0,-8.836274872E0,-1.523232422E0,9.775049342E0
1.618345608E1,-3.900289307E0,-8.833580475E0,-1.526974640E0,9.776300539E0
1.619344608E1,-3.911216583E0,-8.841064911E0,-1.544937286E0,9.790243875E0
1.620343608E1,-3.903133392E0,-8.860075378E0,-1.551523590E0,9.805233880E0
1.621342608E1,-3.896247711E0,-8.853189697E0,-1.560055847E0,9.797626666E0
1.622341608E1,-3.895648956E0,-8.844807129E0,-1.564845886E0,9.790578971E0
1.623340708E1,-3.899241486E0,-8.829838257E0,-1.552571411E0,9.776533424E0
1.624339708E1,-3.914360046E0,-8.843160553E0,-1.532812500E0,9.791486981E0
1.625338708E1,-3.946094055E0,-8.857231293E0,-1.538051605E0,9.817729229E0
1.626337708E1,-3.958218842E0,-8.861572266E0,-1.559756470E0,9.829944031E0
1.627336708E1,-3.955973511E0,-8.876092072E0,-1.563648376E0,9.842750283E0
1.628335708E1,-3.968098297E0,-8.876541138E0,-1.560355225E0,9.847512127E0
1.629334708E1,-3.950884094E0,-8.859177246E0,-1.553768921E0,9.823884388E0
1.630333708E1,-3.925287323E0,-8.833430786E0,-1.542991333E0,9.788677248E0
1.631332708E1,-3.937112732E0,-8.844208374E0,-1.545835419E0,9.803595543E0
1.632331708E1,-3.979025574E0,-8.841064911E0,-1.538051605E0,9.816449257E0
1.633330808E1,-4.005071411E0,-8.817563782E0,-1.556163940E0,9.808754980E0
