"Time (s)","Acceleration x (m/s^2)","Acceleration y (m/s^2)","Acceleration z (m/s^2)","Absolute acceleration (m/s^2)"
1.094250008E-3,-1.285826111E0,2.240840149E0,8.456364899E0,8.842218085E0
1.108424994E-2,-1.451531525E0,2.352657623E0,8.580606537E0,9.014918203E0
2.107424999E-2,-1.658551025E0,2.383044434E0,8.928183746E0,9.388405471E0
3.106424992E-2,-2.117496643E0,2.403402100E0,9.828860779E0,1.033763212E1
4.105424997E-2,-2.236349487E0,2.251767426E0,9.849068756E0,1.034774714E1
5.104425002E-2,-2.103126526E0,2.208956451E0,9.623936920E0,1.009568183E1
6.103424996E-2,-1.935175781E0,2.039508820E0,9.425599365E0,9.835976053E0
7.102425001E-2,-1.857786713E0,1.693578186E0,9.512867889E0,9.839422444E0
8.101424994E-2,-1.672921143E0,1.942809906E0,9.858648834E0,1.018656627E1
9.100424999E-2,-1.333876190E0,2.085313568E0,1.003034180E1,1.033128815E1
1.009942499E-1,-1.263223114E0,2.104623413E0,1.012060410E1,1.041401938E1
1.109842500E-1,-1.382525024E0,2.154170380E0,1.013227982E1,1.045059423E1
1.209752500E-1,-1.417402496E0,2.080224152E0,9.864187317E0,1.018030224E1
1.309652500E-1,-1.432071991E0,2.059417419E0,9.603878632E0,9.926052340E0
1.409552500E-1,-1.486259308E0,2.156565399E0,9.390871582E0,9.749267158E0
1.509452499E-1,-1.622026978E0,2.291734314E0,9.258397064E0,9.674757562E0
1.609352500E-1,-1.779200134E0,2.461181946E0,9.257498932E0,9.742907993E0
1.709252499E-1,-1.707648926E0,2.640658722E0,9.185049591E0,9.708464314E0
1.809152500E-1,-1.197210388E0,2.615511017E0,9.162147217E0,9.603080350E0
1.909052500E-1,-7.797285461E-1,2.359692993E0,9.347761230E0,9.672474743E0
2.008952500E-1,-1.282233582E0,2.372416534E0,9.483678589E0,9.859647192E0
2.108852500E-1,-1.632205811E0,2.596201172E0,9.288484497E0,9.781630773E0
2.208752499E-1,-1.851200409E0,2.445464630E0,9.065448303E0,9.570245198E0
2.308652500E-1,-1.105002136E0,1.641336823E0,8.664282532E0,8.887339764E0
2.408552499E-1,-1.058598633E0,1.433568878E0,8.919801178E0,9.096076289E0
2.508452500E-1,-1.057251434E0,1.899699554E0,9.105864258E0,9.361805535E0
2.608352500E-1,-6.625222778E-1,2.622247009E0,9.349258118E0,9.732612316E0
2.708252500E-1,-2.381547546E-1,2.438728638E0,9.261091461E0,9.579766704E0
2.808152500E-1,-1.981878662E-1,1.711091766E0,9.221423950E0,9.380926027E0
2.908052499E-1,-1.740879822E-1,1.398990784E0,8.621172180E0,8.735679229E0
3.007952500E-1,3.038681030E-2,1.537003784E0,8.566236420E0,8.703086257E0
3.107852499E-1,1.962419128E-1,2.068099365E0,8.629854126E0,8.876369084E0
3.207762500E-1,1.285826111E-1,2.411485291E0,8.329428864E0,8.672437949E0
3.307662500E-1,-1.453477478E-1,2.224673767E0,8.211174774E0,8.508448185E0
3.407562500E-1,-1.408570862E-1,2.165846100E0,8.253985748E0,8.534577364E0
3.507462500E-1,8.367599487E-2,1.977088623E0,8.500223694E0,8.727524502E0
3.607362499E-1,1.178050232E-1,1.373394012E0,8.823251953E0,8.930277944E0
3.707262500E-1,-6.810836792E-2,7.943980408E-1,9.556127930E0,9.589331990E0
3.807162499E-1,4.487667847E-1,1.184037781E0,9.667646027E0,9.750216243E0
3.907062500E-1,-3.839515686E-1,9.030720520E-1,9.959089966E0,1.000731887E1
4.006962500E-1,-6.357279968E-1,8.544232178E-1,1.051263885E1,1.056644523E1
4.106862500E-1,-5.523513794E-2,6.982978821E-1,1.070828201E1,1.073116837E1
4.206762500E-1,1.305285645E-1,1.582060089E0,1.140777740E1,1.151769669E1
4.306662499E-1,-1.401086426E-1,2.124382324E0,1.174577454E1,1.193716257E1
4.406562500E-1,9.759704590E-2,1.956730957E0,1.179801590E1,1.195957777E1
4.506462499E-1,1.395697632E0,1.933978271E0,1.149160309E1,1.173648948E1
4.606362500E-1,3.908372498E-1,1.195414124E0,1.201760925E1,1.208324049E1
4.706262500E-1,7.050338745E-1,1.106948090E0,1.166628983E1,1.173987756E1
4.806162500E-1,1.620979156E0,8.937913513E-1,1.065125061E1,1.081090079E1
4.906062500E-1,1.306632843E0,-1.314266968E-1,1.004561005E1,1.013108304E1
5.005962499E-1,1.708397369E0,-6.448590088E-1,1.003528152E1,1.020006569E1
5.105862500E-1,1.700314178E0,-1.014290771E0,1.030696655E1,1.049539964E1
5.205762499E-1,1.684596863E0,-7.098239136E-1,1.071486832E1,1.086968811E1
5.305672500E-1,1.533111877E0,-3.844006348E-1,1.067415298E1,1.079053927E1
5.405572500E-1,9.698332214E-1,-2.305206299E-1,1.010952713E1,1.015855576E1
5.505472500E-1,5.983058167E-1,-4.333488464E-1,9.811496887E0,9.839269904E0
5.605372500E-1,-2.064207458E-1,4.956193542E-1,1.013916550E1,1.015337013E1
5.705272499E-1,8.981323242E-2,2.133064270E0,1.014590149E1,1.036809272E1
5.805172500E-1,-5.783972168E-1,2.871778107E0,1.029963181E1,1.070813094E1
5.905072499E-1,-2.417772217E0,2.186353455E0,1.086695206E1,1.134532551E1
6.004972500E-1,-2.833158417E0,2.055974579E0,1.056038956E1,1.112545036E1
6.104872500E-1,-4.140689392E0,3.580554199E0,9.373956757E0,1.085526335E1
6.204772500E-1,-5.258265381E0,5.875282288E0,8.737630005E0,1.176921726E1
6.304672500E-1,-2.458038483E0,5.685027924E0,8.776399384E0,1.074181930E1
6.404572499E-1,-9.369017029E-1,3.640579376E0,8.086334381E0,8.917421529E0
6.504472500E-1,3.323089600E-1,1.988464966E0,6.122418365E0,6.445807072E0
6.604372499E-1,1.077758789E0,1.657353516E0,4.579127655E0,4.987664259E0
6.704272500E-1,7.997868347E-1,2.307301941E0,3.714525604E0,4.445334823E0
6.804172500E-1,-5.496569824E-1,4.001329193E0,4.649481354E0,6.158768949E0
6.904072500E-1,-1.537901917E0,5.936654663E0,6.742578735E0,9.114350163E0
7.003972500E-1,-4.537065125E-1,5.752088470E0,7.983647919E0,9.850431740E0
7.103872499E-1,1.124461670E0,4.187541962E0,8.641529846E0,9.668296634E0
7.203772500E-1,1.428180084E0,3.212769012E0,8.836274872E0,9.510065020E0
7.303682499E-1,1.120120697E0,3.132835236E0,8.841214600E0,9.446502135E0
7.403582500E-1,8.931925964E-1,3.794010315E0,9.544901276E0,1.031006536E1
7.503482500E-1,5.038522339E-1,4.580175476E0,1.040097107E1,1.137594276E1
7.603382500E-1,1.916015625E-2,5.015320587E0,1.114597183E1,1.222237685E1
7.703282500E-1,-4.972659302E-1,4.550237732E0,1.099433716E1,1.190913038E1
7.803182499E-1,2.679428101E-2,3.289559326E0,9.723629608E0,1.026503245E1
7.903082500E-1,1.760339355E-1,1.884131927E0,8.545878754E0,8.752884367E0
8.002982499E-1,1.945953369E-2,1.215322723E0,9.179960175E0,9.260078661E0
8.102882500E-1,6.001020813E-1,1.540895691E0,8.573870544E0,8.731880562E0
8.202782500E-1,-7.053332520E-1,1.154100037E0,6.789431305E0,6.922847632E0
8.302682500E-1,-5.201683044E-1,1.271306305E0,8.590336304E0,8.699463926E0
8.402582500E-1,-3.679348755E-1,6.255491638E-1,1.015877472E1,1.018466453E1
8.502482499E-1,-1.969604187E0,-8.813671875E-1,1.117845428E1,1.138481396E1
8.602375833E-1,-1.659598846E0,-6.179150391E-1,1.125240051E1,1.139090008E1
8.702275833E-1,-2.600093079E0,-4.076023865E-1,1.039722885E1,1.072515695E1
8.802175833E-1,-1.703008575E0,5.691165161E-1,9.562115479E0,9.729243765E0
8.902075833E-1,9.216334534E-1,1.780846710E0,9.313033447E0,9.526458692E0
9.001975834E-1,-6.008505249E-1,1.641336823E0,9.744735718E0,9.900246569E0
9.101875833E-1,6.985972595E-1,8.342152405E-1,9.429491272E0,9.492062939E0
9.201775833E-1,5.771997070E-1,1.052611084E0,9.561367035E0,9.636435501E0
9.301675833E-1,6.497987366E-1,1.249152374E0,9.811047821E0,9.911573003E0
9.401575833E-1,1.005758514E0,1.306632843E0,9.353150024E0,9.497381479E0
9.501485833E-1,3.192860413E-1,9.352551270E-1,9.471404114E0,9.522822146E0
9.601385833E-1,1.094224548E-1,3.742218018E-3,9.398954773E0,9.399592443E0
9.701285833E-1,-1.000220032E0,-8.244854736E-1,1.032732422E1,1.040835443E1
9.801185833E-1,-9.659413147E-1,-1.605112152E0,1.125659180E1,1.141141037E1
9.901085834E-1,-7.523355103E-1,-1.533710632E0,1.088805817E1,1.102125617E1
1.000098583E0,-5.688171387E-2,-2.945874023E-1,1.065978287E1,1.066400432E1
1.010088583E0,1.689237213E0,1.369053040E0,1.050680099E1,1.072943129E1
1.020078583E0,1.524280243E0,1.419947205E0,9.359886017E0,9.588907475E0
1.030068583E0,2.239492950E0,1.965712280E0,8.860973511E0,9.348593745E0
1.040058583E0,2.478695526E0,1.672023010E0,8.632249146E0,9.135388211E0
1.050048583E0,2.360740814E0,1.435664520E0,8.702303467E0,9.130406094E0
1.060038583E0,2.384990387E0,1.130449219E0,9.269174652E0,9.637618654E0
1.070028583E0,2.524949341E0,9.527687073E-1,9.023535461E0,9.418456859E0
1.080018583E0,2.823578339E0,6.730004883E-1,8.847351837E0,9.311345704E0
1.090008583E0,3.182531891E0,1.297501831E0,8.915460205E0,9.554969958E0
1.099998583E0,3.815715179E0,1.492246857E0,8.893156586E0,9.791563566E0
1.109988583E0,3.954326935E0,5.617817688E-1,8.720266113E0,9.591420195E0
1.119978583E0,3.925437012E0,7.484436035E-1,8.576265564E0,9.461583091E0
1.129968583E0,3.878434753E0,1.327589264E0,8.057145081E0,9.040040721E0
1.139958583E0,4.634662170E0,1.376387787E0,7.586224365E0,8.995851093E0
1.149948583E0,4.996759186E0,1.596729584E0,7.805069275E0,9.404055195E0
1.159939583E0,5.148992615E0,1.826950836E0,8.136330414E0,9.800497279E0
1.169929583E0,4.915478210E0,1.163680115E0,8.502019958E0,9.889409528E0
1.179919583E0,3.212769012E0,-1.263821869E0,9.870324554E0,1.045669342E1
1.189909583E0,1.113085327E0,-1.155596924E0,1.002944366E1,1.015697314E1
1.199899583E0,2.216740265E0,-8.560697937E-1,8.421337738E0,8.750184123E0
1.209889583E0,2.699486389E0,-2.525248718E-1,8.507408752E0,8.928997663E0
1.219879583E0,2.346520386E0,-1.257385254E-2,7.932304688E0,8.272108176E0
1.229869583E0,2.544408875E0,5.583389282E-1,7.406448212E0,7.851193157E0
1.239859583E0,2.847528534E0,6.563850403E-1,7.680977325E0,8.218069892E0
1.249849583E0,3.053649902E0,9.071136475E-2,8.156688080E0,8.710026792E0
1.259839583E0,2.986140289E0,-1.058299255E-1,8.749006348E0,9.245179602E0
1.269829583E0,2.910397797E0,-2.097138977E-1,9.451495514E0,9.891671381E0
1.279819583E0,2.639760590E0,-6.053411865E-1,1.025786865E1,1.060936583E1
1.289809583E0,1.652563477E0,-6.366261292E-1,1.054063065E1,1.068836532E1
1.299799583E0,1.000519409E0,-8.259823608E-1,9.980794830E0,1.006476783E1
1.309789583E0,8.416996765E-1,-7.620652771E-1,9.088350677E0,9.159002122E0
1.319779583E0,5.713618469E-1,-6.328839111E-1,8.206684113E0,8.250858169E0
1.329769583E0,4.257147217E-1,-7.150630188E-1,7.704478455E0,7.749292639E0
1.339759583E0,4.887336731E-1,-8.301736450E-1,7.670499115E0,7.730757114E0
1.349749583E0,7.441026306E-1,-8.747808838E-1,7.889793091E0,7.972939567E0
1.359739583E0,9.889933777E-1,-9.313632202E-1,7.949518890E0,8.064762609E0
1.369729583E0,1.335373077E0,-1.043180695E0,7.857909393E0,8.038543851E0
1.379720583E0,1.763632507E0,-1.311722260E0,7.907905426E0,8.207678304E0
1.389710583E0,1.844464417E0,-1.527872772E0,7.700137482E0,8.064028858E0
1.399700583E0,2.139051819E0,-1.559906158E0,7.724237366E0,8.165334824E0
1.409690583E0,2.098037109E0,-1.529669037E0,8.346792755E0,8.741315483E0
1.419680583E0,2.312391357E0,-9.512718201E-1,8.791068878E0,9.139746380E0
1.429670583E0,3.393592987E0,-1.829794922E0,8.875792694E0,9.676999471E0
1.439660583E0,3.331023102E0,-2.077230377E0,8.613238678E0,9.465647441E0
1.449650583E0,2.825973358E0,-1.936522980E0,7.902366943E0,8.612993091E0
1.459640583E0,2.639311523E0,-2.486030273E0,7.417824554E0,8.256538800E0
1.469630583E0,2.351909180E0,-2.367177429E0,8.388406219E0,9.027755240E0
1.479620583E0,2.675985260E0,-2.759661255E0,9.870623932E0,1.059272600E1
1.489610583E0,3.481759644E0,-3.318000183E0,1.068687653E1,1.171926215E1
1.499600583E0,4.376598816E0,-3.849095764E0,1.135553604E1,1.276394744E1
1.509590583E0,4.617897034E0,-4.755760345E0,1.141361526E1,1.319897128E1
1.519580583E0,3.535946960E0,-5.551954651E0,1.159099640E1,1.332960310E1
1.529570583E0,2.569257202E0,-4.651576996E0,1.113489487E1,1.233791452E1
1.539560583E0,4.593348083E0,-5.036875763E0,1.094029953E1,1.289027222E1
1.549550583E0,5.781726837E0,-3.574866028E0,1.044018951E1,1.245815353E1
1.559540583E0,8.065527649E0,-3.067570953E0,9.762398987E0,1.302947281E1
1.569530583E0,9.647438049E0,-2.790946198E0,9.712552643E0,1.397126052E1
1.579520583E0,1.032118698E1,-2.241139526E0,9.960137787E0,1.451736725E1
1.589510583E0,1.047895889E1,-2.445464630E0,9.896370392E0,1.461940572E1
1.599501583E0,1.170954987E1,-3.939657440E0,1.009785141E1,1.595622330E1
1.609491583E0,1.100795883E1,-3.561094666E0,1.009859985E1,1.535702679E1
1.619481583E0,1.012584320E1,-2.894530792E0,9.435628510E0,1.414008820E1
1.629471583E0,1.010758118E1,-3.269351349E0,8.361013184E0,1.351881640E1
1.639461583E0,9.850116577E0,-3.316952362E0,6.899452515E0,1.247515189E1
1.649451583E0,1.028107040E1,-3.143912201E0,4.631518707E0,1.170621878E1
1.659441583E0,1.081081879E1,-2.873125305E0,2.339185638E0,1.142805501E1
1.669431583E0,1.076007431E1,-2.731519775E0,1.206491089E0,1.116673722E1
1.679421583E0,1.000459534E1,-3.152444458E0,7.746391296E-1,1.051807490E1
1.689411583E0,9.442813568E0,-3.772754517E0,6.710545349E-1,1.019071729E1
1.699401583E0,8.545729065E0,-4.168381805E0,9.291178894E-1,9.553436669E0
1.709391583E0,7.848479004E0,-4.648732910E0,2.222278748E0,9.388709346E0
1.719381583E0,7.229815521E0,-5.416037292E0,3.815116425E0,9.806059645E0
1.729371583E0,6.548133087E0,-5.975723419E0,4.989873505E0,1.017281450E1
1.739361583E0,6.090983734E0,-6.357729034E0,5.676495667E0,1.047584862E1
1.749351583E0,6.236481171E0,-6.319259033E0,5.261857910E0,1.032055622E1
1.759341583E0,7.091802521E0,-5.742658081E0,3.621269531E0,9.817605505E0
1.769331583E0,8.274044037E0,-5.204078064E0,1.852248230E0,9.948520328E0
1.779321583E0,9.503287811E0,-4.415368195E0,3.242257690E-1,1.048394381E1
1.789311583E0,1.061816940E1,-3.783532104E0,4.505630493E-2,1.127220771E1
1.799301583E0,1.045231430E1,-4.106710052E0,7.494914246E-1,1.125511791E1
1.809291583E0,9.356443176E0,-4.466262360E0,8.584648132E-1,1.040324422E1
1.819281583E0,9.565558319E0,-4.159250793E0,-1.362167358E-2,1.043069790E1
1.829272583E0,1.109777206E1,-3.186872864E0,-1.192570038E0,1.160770980E1
1.839262583E0,1.292562103E1,-1.777104492E0,-2.156715088E0,1.322426555E1
1.849252583E0,1.265184036E1,-1.299896851E0,-2.059118042E0,1.288405074E1
1.859242583E0,9.573940887E0,-2.071841583E0,-8.415499878E-1,9.831636590E0
1.869232333E0,6.997798004E0,-2.526595917E0,-7.647596741E-1,7.479152438E0
1.879222333E0,5.987548828E0,-2.460283813E0,-1.894909515E0,6.744955114E0
1.889212333E0,6.430328064E0,-3.091521149E0,-3.195255432E0,7.817690151E0
1.899202333E0,6.809639282E0,-3.551664276E0,-3.679348755E0,8.516050349E0
1.909192333E0,7.339836731E0,-4.214336243E0,-2.748135223E0,8.898656101E0
1.919182333E0,7.573650513E0,-4.866679688E0,-1.418899384E0,9.113617763E0
1.929172333E0,7.727530518E0,-4.935237122E0,-7.364685059E-1,9.198569411E0
1.939162333E0,8.053103485E0,-4.753664703E0,-1.802252197E-1,9.353196512E0
1.949152333E0,7.806117096E0,-4.453688507E0,2.424957275E-2,8.987290664E0
1.959142333E0,7.165000305E0,-4.364923096E0,-6.301895142E-2,8.390098593E0
1.969132333E0,6.471043396E0,-4.156706085E0,8.681945801E-2,7.691563283E0
1.979122333E0,5.684578857E0,-3.663332062E0,-2.612068176E-1,6.767766809E0
1.989112333E0,5.620661774E0,-3.245401154E0,-1.343156891E0,6.627860730E0
1.999102333E0,5.996530151E0,-2.675386505E0,-2.811752930E0,7.142970065E0
2.009092333E0,5.348976746E0,-6.765930176E-1,-4.352498932E0,6.929183017E0
2.019082333E0,1.157812317E1,-3.126697998E0,5.275030518E-1,1.200447566E1
2.029072333E0,1.227193039E1,-2.357896729E0,8.400531006E-1,1.252460146E1
2.039062333E0,1.154040161E1,-1.825004883E0,7.750881958E-1,1.170949503E1
2.049053333E0,1.205308548E1,-3.067720642E0,-9.011260986E-2,1.243768064E1
2.059043333E0,1.126257935E1,-2.127376099E0,1.326391754E0,1.153822940E1
2.069033333E0,1.193587921E1,-2.609523468E0,4.560715942E0,1.304127889E1
2.079023333E0,1.351629272E1,-4.271966400E0,2.036964111E0,1.432093184E1
2.089013333E0,1.167302582E1,-4.442461853E0,4.640350342E-3,1.248979666E1
2.099003333E0,1.013227982E1,-6.276747437E0,-5.869294739E-1,1.193336243E1
2.108993333E0,8.591533813E0,-7.761958923E0,-1.936522980E0,1.173936033E1
2.118983333E0,8.573421478E0,-8.291856995E0,-1.966161346E0,1.208818591E1
2.128973333E0,9.392817535E0,-9.330097961E0,-3.598516846E-1,1.324406442E1
2.138963333E0,8.994495850E0,-9.479487305E0,5.059478760E-2,1.306767749E1
2.148953333E0,9.586215363E0,-8.763825531E0,-3.438349915E-1,1.299301295E1
2.158943333E0,9.422755280E0,-8.950637054E0,-6.783892822E-1,1.301393226E1
2.168933333E0,9.767488403E0,-7.901917877E0,-1.008003845E0,1.260397586E1
2.178923333E0,1.009560608E1,-6.487808533E0,-9.500743103E-1,1.203808801E1
2.188913333E0,1.387075562E1,-8.567134552E0,-2.137554932E-1,1.630458056E1
2.198903333E0,1.357661728E1,-8.145162048E0,5.523513794E-2,1.583260094E1
2.208893333E0,1.399215317E1,-6.643035736E0,9.535171509E-2,1.548933072E1
2.218883333E0,1.638582550E1,-4.231849823E0,3.483256531E-1,1.692705412E1
2.228873333E0,1.842458588E1,-4.372407532E0,3.119512939E-1,1.893886549E1
2.238863333E0,1.997431320E1,-5.027295685E0,1.041534119E0,2.062357106E1
2.248853333E0,2.057127182E1,-4.797972565E0,2.538720703E0,2.127540523E1
2.258843333E0,1.846709747E1,-3.649860077E0,1.545985107E0,1.888770070E1
2.268833333E0,1.617925507E1,-2.225721588E0,-1.535057831E0,1.640361343E1
2.278823333E0,1.380549133E1,-7.881111145E-1,-1.133892059E0,1.387438003E1
2.288814333E0,4.965773621E0,-4.169878693E0,-4.056564331E-1,6.497026482E0
2.298804333E0,1.606159973E-1,-4.766687622E0,7.688012695E-1,4.830958888E0
2.308794333E0,-2.467319183E0,-4.865182800E0,1.861379242E0,5.763887604E0
2.318784333E0,-2.771486664E0,-4.438420258E0,1.210382996E0,5.370823001E0
2.328774333E0,2.176473999E-1,-2.502496033E0,7.731422424E-1,2.628232431E0
2.338764333E0,1.286724243E0,-1.382974091E0,-1.020877075E-1,1.891744833E0
2.348754333E0,8.072712708E-1,-5.754034424E-1,-1.010099487E0,1.415301028E0
2.358744333E0,1.044677582E0,-1.130898285E0,-1.811532898E0,2.377379570E0
2.368734333E0,2.353106689E-1,-1.382525024E0,-1.305135956E0,1.915757400E0
2.378724333E0,-1.265019379E0,-3.019371185E0,-5.544470215E-1,3.320284308E0
2.388714333E0,-3.442391510E0,-3.844156036E0,-9.294172668E-1,5.243225286E0
2.398704333E0,-4.409979401E0,-4.225263519E0,-2.716101837E0,6.684158833E0
2.408694333E0,-6.574627991E0,-6.911577301E0,-1.460213470E0,9.650277581E0
2.418684333E0,-7.847431183E0,-9.880503387E0,1.991009674E0,1.277382648E1
2.428674333E0,-4.518354034E0,-1.150791916E1,3.504212952E0,1.285018424E1
2.438664333E0,1.012195129E0,-1.174891800E1,3.969595184E0,1.244264036E1
2.448654333E0,6.471492462E0,-9.933493195E0,3.992347870E0,1.250972994E1
2.458644333E0,8.163274384E0,-5.489235077E0,1.392703857E0,9.935309478E0
2.468634333E0,8.658744049E0,-2.399210815E0,-2.519261169E0,9.331491729E0
2.478624333E0,1.343067078E1,-2.866389313E0,-5.152435455E0,1.466787975E1
2.488614333E0,1.683668793E1,-5.344635773E0,-4.220623169E0,1.816185155E1
2.498604333E0,1.659089905E1,-9.449549561E0,-2.728675690E0,1.928723902E1
2.508594333E0,1.616383713E1,-1.298639465E1,-1.735790405E0,2.080694704E1
2.518584333E0,1.382435211E1,-1.470092926E1,-7.524851990E-1,2.019396609E1
2.528574333E0,1.045890060E1,-1.448911972E1,5.089416504E-2,1.786968893E1
2.538565333E0,9.069190521E0,-1.406175842E1,4.935237122E-1,1.673997707E1
2.548554333E0,8.306227112E0,-1.354862549E1,1.607956238E0,1.597323338E1
2.558545333E0,6.564000092E0,-1.178619049E1,2.404749298E0,1.370340114E1
2.568535333E0,6.526877289E0,-8.743767242E0,7.334747314E-1,1.093579343E1
2.578525333E0,5.812862091E0,-8.418194275E0,-6.776408386E-1,1.025253908E1
2.588515333E0,4.870272217E0,-9.456435242E0,-1.557960205E0,1.075039343E1
2.598505333E0,3.703149261E0,-1.160057648E1,-2.428250427E0,1.241704833E1
2.608495333E0,2.218835907E0,-1.487666382E1,-3.922293549E0,1.554421905E1
2.618485333E0,8.574169922E-1,-1.614392853E1,-4.002826080E0,1.665485541E1
2.628475333E0,-8.904981995E-1,-1.600172424E1,-3.043471069E0,1.631290538E1
2.638465333E0,-2.561922455E0,-1.507290573E1,-1.683549042E0,1.538149119E1
2.648455333E0,-5.384003906E0,-1.433568878E1,2.471360779E-1,1.531536964E1
2.658445333E0,-7.493716736E0,-1.332319427E1,2.688559113E0,1.552068447E1
2.668435333E0,-8.445437622E0,-1.127575195E1,4.798421631E0,1.488263582E1
2.678425333E0,-8.585845642E0,-8.309071198E0,5.740113373E0,1.325542572E1
2.688415333E0,-7.372768250E0,-5.638175354E0,6.446494446E0,1.130062050E1
2.698405333E0,-6.109245758E0,-3.939657440E0,6.852599945E0,9.990090614E0
2.708395333E0,-5.983058167E0,-3.019371185E0,6.326144714E0,9.215947826E0
2.718385333E0,-6.429878998E0,-2.828667755E0,5.469775543E0,8.902985437E0
2.728375333E0,-6.867718506E0,-3.566034393E0,4.349205780E0,8.876809657E0
2.738365333E0,-7.163653107E0,-4.798122253E0,3.242257690E0,9.211522020E0
2.748355333E0,-7.361242218E0,-6.199358368E0,2.503843231E0,9.944302997E0
2.758345333E0,-7.584128723E0,-7.670948181E0,1.686093750E0,1.091812102E1
2.768335333E0,-7.797584839E0,-9.609866180E0,1.511856079E-2,1.237546306E1
2.778325333E0,-7.612569580E0,-1.137664215E1,-2.060614929E0,1.384288034E1
2.788315333E0,-6.313271484E0,-1.169952072E1,-3.583697662E0,1.376877158E1
2.798306333E0,-4.684358826E0,-1.097652420E1,-4.062252502E0,1.260671236E1
2.808296333E0,-3.749103699E0,-9.964179382E0,-3.098706207E0,1.108794974E1
2.818286333E0,-3.563339996E0,-9.072932739E0,-1.381626892E0,9.845018704E0
2.828276333E0,-3.703598328E0,-8.669821014E0,1.481918335E-2,9.427759893E0
2.838266333E0,-3.914659424E0,-8.692124634E0,8.798703003E-1,9.573492612E0
2.848256333E0,-3.928131409E0,-8.728948059E0,1.473685455E0,9.684859287E0
2.858246333E0,-4.054618378E0,-8.933273163E0,1.646126862E0,9.947513922E0
2.868236583E0,-4.337530060E0,-9.293424225E0,1.855092316E0,1.042224872E1
2.878226583E0,-4.134402466E0,-9.013206940E0,1.898801422E0,1.009636716E1
2.888216583E0,-3.886068878E0,-8.448431396E0,1.774859161E0,9.467188042E0
2.898206583E0,-4.043990479E0,-8.795110474E0,1.755399628E0,9.838153032E0
2.908196583E0,-3.901187439E0,-9.156459045E0,1.084943848E0,1.001184842E1
2.918186583E0,-3.919000397E0,-9.299262085E0,3.412902832E-2,1.009138267E1
2.928176583E0,-3.714675293E0,-8.832233276E0,-1.031804352E0,9.637000436E0
2.938166583E0,-3.986210632E0,-8.764723663E0,-1.318158875E0,9.718425743E0
2.948156583E0,-4.370461578E0,-8.969198456E0,-1.246607666E0,1.005492347E1
2.958146583E0,-4.587809601E0,-9.072783051E0,-6.984475708E-1,1.019074179E1
2.968136583E0,-4.607269135E0,-9.069938965E0,-6.735992432E-2,1.017326197E1
2.978126583E0,-4.479434967E0,-9.052724762E0,3.637435913E-1,1.010690223E1
2.988116583E0,-4.436623993E0,-9.006770325E0,6.807843018E-1,1.006325054E1
2.998106583E0,-4.472100220E0,-8.875942383E0,7.903564453E-1,9.970290711E0
3.008096583E0,-4.612059174E0,-8.753796387E0,8.021818542E-1,9.926909727E0
3.018086583E0,-4.817432098E0,-8.681496735E0,7.002438354E-1,9.953209483E0
3.028076583E0,-4.947511597E0,-8.612490234E0,4.767585754E-1,9.943850249E0
3.038066583E0,-5.025948486E0,-8.521479492E0,1.872605896E-1,9.894990523E0
3.048056583E0,-5.317841492E0,-8.595575409E0,1.269360352E-1,1.010838600E1
3.058046583E0,-5.568121033E0,-8.723259888E0,-2.380050659E-2,1.034890339E1
3.068036583E0,-5.820346527E0,-8.753796387E0,-9.550140381E-2,1.051258795E1
3.078027583E0,-6.026617584E0,-8.613388367E0,-6.376739502E-2,1.051259459E1
3.088017583E0,-6.283333740E0,-8.442144470E0,-7.619155884E-2,1.052406249E1
3.098007583E0,-6.502178650E0,-8.245902557E0,6.721023560E-2,1.050132151E1
3.107997583E0,-6.720574493E0,-8.000712433E0,2.395019531E-1,1.045154927E1
3.117987583E0,-7.072642365E0,-7.930209045E0,2.249821472E-1,1.062831607E1
3.127977583E0,-7.275919647E0,-7.868088226E0,-1.496887207E-3,1.071661426E1
3.137967583E0,-7.275320892E0,-7.693700867E0,-2.613565063E-1,1.059205525E1
3.147957583E0,-7.018155670E0,-7.446415100E0,-5.219645691E-1,1.024578225E1
3.157947583E0,-6.628964996E0,-7.333100739E0,-7.809260559E-1,9.916016784E0
3.167937583E0,-6.346652069E0,-7.570357361E0,-9.425898743E-1,9.923647451E0
3.177927583E0,-6.103108521E0,-8.051606598E0,-1.171463928E0,1.017096997E1
3.187917583E0,-5.620512085E0,-8.314160614E0,-1.605710907E0,1.016335232E1
3.197907583E0,-5.536237335E0,-8.639284515E0,-1.678908691E0,1.039739848E1
3.207897583E0,-5.515430603E0,-8.790170746E0,-1.767823792E0,1.052674106E1
3.217887583E0,-5.746849365E0,-8.687633972E0,-1.650318146E0,1.054631744E1
3.227877583E0,-6.092929688E0,-8.365803223E0,-9.407936096E-1,1.039209066E1
3.237867583E0,-6.281088409E0,-7.997868347E0,5.418731689E-2,1.016960697E1
3.247857583E0,-5.838309174E0,-7.234306183E0,7.122189331E-1,9.323534510E0
3.257847583E0,-5.177433472E0,-6.655010834E0,9.574090576E-1,8.485965982E0
3.267837583E0,-4.378095703E0,-6.484216003E0,9.672885132E-1,7.883427315E0
3.277827583E0,-3.611390076E0,-6.764582977E0,8.927435303E-1,7.720020217E0
3.287817583E0,-3.140469360E0,-7.289840698E0,9.160949707E-1,7.990216218E0
3.297807583E0,-2.806962891E0,-7.695796509E0,9.193881226E-1,8.243154681E0
3.307797583E0,-2.650687866E0,-7.949369202E0,8.876541138E-1,8.426538239E0
3.317787583E0,-2.502346344E0,-8.038433990E0,6.593788147E-1,8.444698850E0
3.327777583E0,-2.290836182E0,-8.351882172E0,-1.616638184E-2,8.660376872E0
3.337767583E0,-2.057471466E0,-8.880283356E0,-1.027014313E0,9.173188089E0
3.347757583E0,-2.059118042E0,-9.325906677E0,-1.993255005E0,9.756309137E0
3.357747583E0,-2.361189880E0,-9.570348358E0,-2.546654205E0,1.018097407E1
3.367738583E0,-3.236569519E0,-9.824519806E0,-2.882106628E0,1.073792858E1
3.377728583E0,-4.909790039E0,-1.009845016E1,-3.554658051E0,1.177795941E1
3.387718583E0,-6.821464691E0,-9.694739685E0,-4.081113281E0,1.253697905E1
3.397708583E0,-8.086783447E0,-8.805139618E0,-3.443289642E0,1.244117333E1
3.407698583E0,-8.875792694E0,-8.134683838E0,-2.034868469E0,1.221038356E1
3.417688583E0,-9.050928497E0,-7.740553436E0,-6.851252747E-1,1.192916052E1
3.427678583E0,-8.543783112E0,-7.562274170E0,3.701802063E-1,1.141583347E1
3.437668583E0,-7.604636078E0,-7.543862457E0,1.260229340E0,1.078557039E1
3.447658583E0,-6.561605072E0,-7.692952423E0,1.590742035E0,1.023555755E1
3.457648583E0,-5.508993988E0,-8.092621307E0,1.407373352E0,9.890411222E0
3.467638583E0,-4.418661346E0,-8.524173889E0,8.102650452E-1,9.635488469E0
3.477628583E0,-3.552263031E0,-8.847052460E0,-7.783813477E-3,9.533570709E0
3.487618583E0,-2.881058807E0,-9.115294647E0,-7.301815796E-1,9.587609791E0
3.497608583E0,-2.342927856E0,-9.250313873E0,-1.276096344E0,9.627358910E0
3.507598583E0,-2.093247070E0,-9.325756989E0,-1.655856628E0,9.700169477E0
3.517588583E0,-2.288890228E0,-9.367220764E0,-1.814077606E0,9.811968247E0
3.527578583E0,-2.866988068E0,-9.466015320E0,-1.444945221E0,9.995645717E0
3.537568583E0,-3.392994232E0,-9.405092010E0,-8.155041504E-1,1.003161067E1
3.547558583E0,-3.854334869E0,-9.201365662E0,-3.004252625E-1,9.980545209E0
3.557548583E0,-4.271816711E0,-9.088650055E0,-6.735992432E-2,1.004273445E1
3.567538583E0,-4.535717926E0,-9.001680908E0,-6.227050781E-2,1.008002351E1
3.577528583E0,-4.593198395E0,-8.980275421E0,-1.939965820E-1,1.008862988E1
3.587518583E0,-4.337979126E0,-8.876990204E0,-3.598516846E-1,9.886784675E0
3.597508583E0,-3.925586700E0,-8.714727631E0,-2.800675964E-1,9.562172686E0
3.607498583E0,-3.527414703E0,-8.900940399E0,1.120869141E0,9.639799900E0
3.617488583E0,-3.332969055E0,-8.748108215E0,1.489103394E0,9.479214576E0
3.627478583E0,-3.859424286E0,-8.156837769E0,6.725514221E-1,9.048838799E0
3.637468583E0,-4.817132721E0,-8.525670776E0,2.622546387E-1,9.795948516E0
3.647458583E0,-5.212161255E0,-9.155411224E0,-1.055305481E-1,1.053562131E1
3.657449583E0,-5.045108643E0,-9.236392822E0,-3.540138245E-1,1.053040357E1
3.667439583E0,-4.900209961E0,-9.131760406E0,-1.537003784E0,1.047680707E1
3.677429583E0,-5.145849152E0,-9.062454529E0,-1.403032379E0,1.051552878E1
3.687419583E0,-4.867278442E0,-8.703201599E0,-3.867956543E-1,9.979264922E0
3.697409583E0,-4.514761505E0,-8.512498169E0,1.469943237E-1,9.636768330E0
3.707399583E0,-4.260140991E0,-8.622818756E0,4.885839844E-1,9.630187894E0
3.717389583E0,-3.940106506E0,-8.781937866E0,5.640270996E-1,9.641835849E0
3.727379583E0,-3.730991364E0,-8.924441528E0,4.296066284E-1,9.682484960E0
3.737369583E0,-3.635340271E0,-8.971144409E0,2.224374390E-1,9.682283269E0
3.747359583E0,-3.690126343E0,-8.932674408E0,3.637435913E-2,9.664938055E0
3.757349583E0,-3.877835999E0,-8.844807129E0,-4.296066284E-2,9.657643129E0
3.767339583E0,-4.186344452E0,-8.838370514E0,-1.032852173E-2,9.779692219E0
3.777329583E0,-4.559817810E0,-8.846753082E0,9.445358276E-2,9.953185422E0
3.787319583E0,-4.858746185E0,-8.841663666E0,1.149609375E-1,1.008938288E1
3.797309583E0,-5.013823700E0,-8.789871368E0,6.286926270E-3,1.011930365E1
3.807299583E0,-5.087320862E0,-8.748706970E0,-1.610650635E-1,1.012159321E1
3.817289583E0,-5.094505920E0,-8.667575684E0,-3.367996216E-1,1.005953740E1
3.827279583E0,-4.993166656E0,-8.515342255E0,-4.321513367E-1,9.880765241E0
3.837269583E0,-4.743934937E0,-8.436007233E0,-3.951782227E-1,9.686449429E0
3.847259583E0,-4.515809326E0,-8.561446381E0,-2.893482971E-1,9.683729676E0
3.857249583E0,-4.354444885E0,-8.795709229E0,-1.514849854E-1,9.815734246E0
3.867240000E0,-4.221970367E0,-8.954079895E0,-6.511459351E-2,9.899738404E0
3.877230000E0,-4.085454254E0,-8.969647522E0,2.365081787E-2,9.856270719E0
3.887220000E0,-4.011208649E0,-8.973838806E0,1.736389160E-1,9.831059364E0
3.897210000E0,-3.927832031E0,-8.949589233E0,2.787203979E-1,9.777560891E0
3.907200000E0,-3.844006348E0,-8.963510284E0,2.917433167E-1,9.757356998E0
3.917190000E0,-3.896846466E0,-8.991352386E0,1.731898499E-1,9.801011419E0
3.927180000E0,-3.992048492E0,-8.978179779E0,-4.939727783E-3,9.825690190E0
3.937170000E0,-4.105961609E0,-8.925489349E0,-1.451980591E-1,9.825699127E0
3.947160000E0,-4.214186554E0,-8.787626038E0,-2.457888794E-1,9.748956450E0
3.957150000E0,-4.306095428E0,-8.740623779E0,-2.486329651E-1,9.746936967E0
3.967141000E0,-4.337979126E0,-8.750652924E0,-1.630110168E-1,9.768242528E0
3.977131000E0,-4.328848114E0,-8.782686310E0,-5.254074097E-2,9.791693691E0
3.987121000E0,-4.336332550E0,-8.815468140E0,5.523513794E-2,9.824424127E0
3.997111000E0,-4.317471771E0,-8.837771759E0,1.311273193E-1,9.836867720E0
4.007101000E0,-4.219575348E0,-8.815168762E0,1.143621826E-1,9.773694037E0
4.017091000E0,-4.163741455E0,-8.811276855E0,2.365081787E-2,9.745558070E0
4.027081000E0,-4.181704102E0,-8.840615845E0,-6.721023560E-2,9.779961908E0
4.037071000E0,-4.269421692E0,-8.912017365E0,-7.679031372E-2,9.882201771E0
4.047061000E0,-4.325105896E0,-8.943002930E0,-5.164260864E-2,9.934108383E0
4.057051000E0,-4.305796051E0,-8.910071411E0,-1.242416382E-2,9.895928786E0
4.067041000E0,-4.212689667E0,-8.800499268E0,7.050338745E-2,9.757074988E0
4.077031000E0,-4.148323517E0,-8.736731873E0,9.131011963E-2,9.671990971E0
4.087021000E0,-4.084556122E0,-8.782686310E0,3.203338623E-2,9.686082989E0
4.097011000E0,-4.059857483E0,-8.842711487E0,2.380050659E-2,9.730187855E0
4.107001000E0,-4.098327484E0,-8.928333435E0,5.358856201E-2,9.824169066E0
4.116991000E0,-4.116140442E0,-8.991202698E0,3.936813354E-2,9.888674731E0
4.126981000E0,-4.150419159E0,-9.006620636E0,4.490661621E-2,9.917016239E0
4.136971000E0,-4.172423401E0,-8.969647522E0,4.909790039E-2,9.892729871E0
4.146961000E0,-4.217928772E0,-8.865015106E0,-5.089416504E-3,9.817303187E0
4.156951000E0,-4.280947723E0,-8.805738373E0,-1.377136230E-2,9.791206838E0
4.166941000E0,-4.310436401E0,-8.794062653E0,4.909790039E-2,9.793763858E0
4.176931000E0,-4.314477997E0,-8.800349579E0,9.804611206E-2,9.801555292E0
4.186921000E0,-4.382137299E0,-8.827742615E0,3.459306335E-1,9.861634498E0
4.196911000E0,-4.458478546E0,-8.897946625E0,3.652404785E-1,9.959160893E0
4.206901000E0,-2.267335052E0,-1.006372238E1,1.003363495E1,1.439073128E1
4.216891000E0,4.119882660E0,-1.189471481E1,1.592223953E1,2.029717678E1
4.226881000E0,1.478924561E0,-9.491761780E0,-8.894354095E0,1.309161160E1
4.236871000E0,-4.028123474E0,-1.078327606E1,-1.240365646E1,1.692204228E1
4.246861000E0,-9.014853516E0,-8.231981506E0,-1.209679459E1,1.718620210E1
4.256851000E0,-1.026999344E1,-5.965544586E0,-4.497996368E0,1.270009680E1
4.266841000E0,-9.329499207E0,-5.705834656E0,-4.490661621E-3,1.093600131E1
4.276831000E0,-7.890990601E0,-6.720125427E0,1.610201569E0,1.048906895E1
4.286821000E0,-6.346203003E0,-7.747888184E0,2.202669525E0,1.025455103E1
4.296811000E0,-5.236560516E0,-8.542585602E0,2.326013031E0,1.028628560E1
4.306802000E0,-4.524790649E0,-9.154662781E0,2.280357971E0,1.046334619E1
4.316792000E0,-3.957171021E0,-9.689350891E0,1.875000916E0,1.063289009E1
4.326782000E0,-3.175945587E0,-1.008348129E1,8.644523621E-1,1.060709683E1
4.336772000E0,-2.326162720E0,-1.016326538E1,-2.074685669E-1,1.042813691E1
4.346762000E0,-1.883832550E0,-9.924661560E0,-5.519023132E-1,1.011693275E1
4.356752000E0,-1.902992706E0,-9.600884857E0,-2.790197754E-1,9.791640481E0
4.366742000E0,-2.286345520E0,-9.415719910E0,5.254074097E-2,9.689474588E0
4.376732000E0,-2.818937988E0,-9.339528351E0,3.158432007E-1,9.760786757E0
4.386722000E0,-3.434907074E0,-9.138945465E0,6.372248840E-1,9.783913653E0
4.396712000E0,-4.215084686E0,-8.880133667E0,8.731343079E-1,9.868438396E0
4.406702000E0,-4.706512756E0,-8.560099182E0,8.213420105E-1,9.803120066E0
4.416692000E0,-4.762646027E0,-8.300838318E0,3.601510620E-1,9.576869151E0
4.426682000E0,-4.707111511E0,-8.331823883E0,-1.279838562E-1,9.570400612E0
4.436672000E0,-4.688550110E0,-8.646619263E0,-4.367916870E-1,9.845674877E0
4.446662000E0,-4.483027496E0,-8.978479156E0,-5.164260864E-1,1.004874716E1
4.456652000E0,-4.216880951E0,-9.106163635E0,-4.366419983E-1,1.004464819E1
4.466642000E0,-4.099375305E0,-9.084309082E0,-2.348616028E-1,9.969187999E0
4.476632000E0,-4.107308807E0,-8.983568573E0,2.978805542E-2,9.878024968E0
4.486622000E0,-4.151167603E0,-8.849746857E0,2.128573608E-1,9.777296157E0
4.496612000E0,-4.188589783E0,-8.765172729E0,2.893482971E-1,9.718861033E0
4.506602000E0,-4.199367371E0,-8.755742340E0,3.158432007E-1,9.715835896E0
4.516592000E0,-4.219275970E0,-8.826395416E0,3.002755737E-1,9.787630519E0
4.526582000E0,-4.272265778E0,-8.875643005E0,2.386038208E-1,9.853234262E0
4.536572000E0,-4.305047607E0,-8.826694794E0,1.790277100E-1,9.822221073E0
4.546562000E0,-4.319417725E0,-8.774004364E0,7.170089722E-2,9.779860075E0
4.556552000E0,-4.444108429E0,-8.797206116E0,-1.407073975E-2,9.856020148E0
4.566542000E0,-4.546345825E0,-8.802445221E0,-7.589218140E-2,9.907475049E0
4.576532000E0,-4.572691040E0,-8.769813080E0,-5.912704468E-2,9.890531877E0
4.586522000E0,-4.518054657E0,-8.727451172E0,3.353027344E-2,9.827631766E0
4.596512000E0,-4.448000336E0,-8.713679810E0,2.019300842E-1,9.785381882E0
4.606502000E0,-4.354893951E0,-8.706195374E0,3.342549133E-1,9.740362702E0
4.616492000E0,-4.223167877E0,-8.746611328E0,4.016148376E-1,9.721093103E0
4.626482000E0,-4.161196747E0,-8.833430786E0,3.662882996E-1,9.771347140E0
4.636473000E0,-4.199666748E0,-8.901539154E0,2.504292297E-1,9.845674934E0
4.646463000E0,-4.259542236E0,-8.902736664E0,1.625619507E-1,9.870605177E0
4.656453000E0,-4.312831421E0,-8.890312500E0,1.154100037E-1,9.881876881E0
4.666443000E0,-4.367318115E0,-8.851992188E0,1.104702759E-1,9.871344229E0
4.676433000E0,-4.383783875E0,-8.745713196E0,1.359173584E-1,9.783840447E0
4.686423000E0,-4.362228699E0,-8.722511444E0,1.657054138E-1,9.753907084E0
4.696413000E0,-4.297413483E0,-8.781488800E0,2.336640930E-1,9.779412411E0
4.706403000E0,-4.192332001E0,-8.836424561E0,2.947370911E-1,9.784933141E0
4.716393000E0,-4.170028381E0,-8.895401917E0,2.968327332E-1,9.828805707E0
4.726383000E0,-4.184847565E0,-8.908574524E0,3.002755737E-1,9.847122149E0
4.736373000E0,-4.171674957E0,-8.891959076E0,2.758763123E-1,9.825778132E0
4.746363000E0,-4.195325775E0,-8.855135651E0,2.071691895E-1,9.800872656E0
4.756353000E0,-4.239034882E0,-8.837322693E0,1.936972046E-1,9.803326360E0
4.766343000E0,-4.300706635E0,-8.820707245E0,2.186952209E-1,9.815741513E0
4.776333000E0,-4.324357452E0,-8.821306000E0,2.749781799E-1,9.828078140E0
4.786323000E0,-4.348307648E0,-8.831484833E0,3.866459656E-1,9.851517591E0
4.796313000E0,-4.326004028E0,-8.744365997E0,4.757107544E-1,9.767525187E0
4.806303000E0,-4.306245117E0,-8.719068604E0,3.614982605E-1,9.731217052E0
4.816293000E0,-4.373305664E0,-8.807834015E0,1.728904724E-1,9.835325799E0
4.826283000E0,-4.416266327E0,-8.854387207E0,1.068777466E-1,9.895201056E0
4.836273000E0,-4.358486481E0,-8.848249969E0,8.412506104E-2,9.863823242E0
4.846263000E0,-4.285588074E0,-8.837322693E0,1.194515991E-1,9.822362557E0
4.856253000E0,-4.290527802E0,-8.820108490E0,1.960922241E-1,9.810269861E0
4.866246333E0,-4.306993561E0,-8.794811096E0,2.633024597E-1,9.796337271E0
4.876236333E0,-4.316423950E0,-8.806636505E0,2.502795410E-1,9.810759507E0
4.886226333E0,-4.323459320E0,-8.841963043E0,2.083666992E-1,9.844593828E0
4.896216333E0,-4.292623444E0,-8.884774017E0,1.743873596E-1,9.868953152E0
4.906206333E0,-4.291126556E0,-8.881630554E0,1.420545959E-1,9.864953519E0
4.916196333E0,-4.263434143E0,-8.835975494E0,1.546284485E-1,9.811994883E0
4.926186333E0,-4.277504883E0,-8.803043976E0,2.062710571E-1,9.789442222E0
4.936176333E0,-4.336332550E0,-8.797355804E0,2.377056885E-1,9.810899710E0
4.946166333E0,-4.397106171E0,-8.794661407E0,2.016307068E-1,9.834697092E0
4.956156333E0,-4.391717377E0,-8.787027283E0,1.586700439E-1,9.824673336E0
4.966147333E0,-4.412673798E0,-8.781039734E0,1.145118713E-1,9.828095534E0
4.976137333E0,-4.408482513E0,-8.794062653E0,1.558259583E-1,9.838421506E0
4.986127333E0,-4.394711151E0,-8.801996155E0,2.180964661E-1,9.840538018E0
4.996117333E0,-4.391268311E0,-8.818162537E0,2.209405518E-1,9.853529450E0
5.006107333E0,-4.391567688E0,-8.818162537E0,2.112107849E-1,9.853449512E0
5.016097333E0,-4.383783875E0,-8.793763275E0,1.910028076E-1,9.827731970E0
5.026087333E0,-4.355941772E0,-8.786428528E0,1.239422607E-1,9.807696808E0
5.036077333E0,-4.352349243E0,-8.827143860E0,1.323248291E-1,9.842709105E0
5.046067333E0,-4.387077026E0,-8.892258453E0,2.014810181E-1,9.917625716E0
5.056057333E0,-4.434079285E0,-8.936716003E0,2.647993469E-1,9.979783100E0
5.066047333E0,-4.414769440E0,-8.880433044E0,2.850073242E-1,9.921366309E0
5.076037333E0,-4.353546753E0,-8.771908722E0,2.674937439E-1,9.796494519E0
5.086027333E0,-4.292473755E0,-8.722661133E0,2.794688416E-1,9.725649130E0
5.096017333E0,-4.295018463E0,-8.777297516E0,2.920426941E-1,9.776166131E0
5.106007333E0,-4.304748230E0,-8.852590942E0,2.990780640E-1,9.848282663E0
5.115997333E0,-4.344415741E0,-8.857231293E0,3.206332397E-1,9.870526834E0
5.125987333E0,-4.362228699E0,-8.798553314E0,3.659889221E-1,9.827386608E0
5.135977333E0,-4.375850372E0,-8.722212067E0,3.909869385E-1,9.766162020E0
5.145967333E0,-4.405189362E0,-8.708440704E0,3.610491943E-1,9.765909550E0
5.155957333E0,-4.440066833E0,-8.789721680E0,3.246748352E-1,9.852858186E0
5.165947333E0,-4.454886017E0,-8.823102264E0,2.986289978E-1,9.888494439E0
5.175937333E0,-4.445305939E0,-8.808133392E0,2.941383362E-1,9.870687722E0
5.185927333E0,-4.403393097E0,-8.778644714E0,3.402424622E-1,9.827015759E0
5.195917333E0,-4.380939789E0,-8.754844208E0,3.912863159E-1,9.797603560E0
5.205907333E0,-4.349804535E0,-8.745264130E0,4.737648010E-1,9.778798355E0
5.215897333E0,-4.309388580E0,-8.753796387E0,4.875361633E-1,9.769210440E0
5.225887333E0,-4.263284454E0,-8.757089539E0,4.733157349E-1,9.751217325E0
5.235877333E0,-4.262985077E0,-8.788524170E0,4.372407532E-1,9.777646871E0
5.245867333E0,-4.299209747E0,-8.846004639E0,3.836521912E-1,9.842875165E0
5.255857333E0,-4.339775391E0,-8.881181488E0,3.764671326E-1,9.891954436E0
5.265847333E0,-4.367168427E0,-8.853938141E0,3.604504395E-1,9.878983004E0
5.275837333E0,-4.378993835E0,-8.774004364E0,3.442840576E-1,9.812098201E0
5.285827333E0,-4.372257843E0,-8.692573700E0,4.070036316E-1,9.738743663E0
5.295817333E0,-4.388723602E0,-8.637338562E0,4.869374084E-1,9.700598968E0
5.305807333E0,-4.370311890E0,-8.657097473E0,5.469625854E-1,9.713090689E0
5.315798333E0,-4.346212006E0,-8.706045685E0,4.936734009E-1,9.743125971E0
5.325788333E0,-4.338428192E0,-8.788374481E0,4.315525818E-1,9.810388516E0
5.335778333E0,-4.361480255E0,-8.824898529E0,3.838018799E-1,9.851327218E0
5.345768333E0,-4.362378387E0,-8.792266388E0,3.927832031E-1,9.822859669E0
5.355758333E0,-4.355642395E0,-8.724607086E0,4.393363953E-1,9.761321937E0
5.365748333E0,-4.340823212E0,-8.658444672E0,4.578977966E-1,9.696446807E0
5.375738333E0,-4.310885468E0,-8.650660858E0,4.680766296E-1,9.676609041E0
5.385728333E0,-4.300107880E0,-8.790769501E0,4.363426208E-1,9.795863978E0
5.395718333E0,-4.392166443E0,-8.976233826E0,4.391867065E-1,1.000283883E1
5.405708333E0,-4.493805084E0,-8.980425110E0,4.552033997E-1,1.005233950E1
5.415698333E0,-4.467908936E0,-8.829538879E0,4.692741394E-1,9.906724247E0
5.425688333E0,-4.431235199E0,-8.692274323E0,5.074447632E-1,9.769799306E0
5.435678333E0,-4.452490997E0,-8.639883270E0,5.846841431E-1,9.737253953E0
5.445668333E0,-4.410877533E0,-8.661288757E0,5.854325867E-1,9.737376180E0
5.455658333E0,-4.373305664E0,-8.756939850E0,5.427713013E-1,9.803285095E0
5.465648333E0,-4.333638153E0,-8.837921448E0,5.020559692E-1,9.856030406E0
5.475638333E0,-4.364923096E0,-8.871302032E0,4.998106384E-1,9.899614339E0
5.485628333E0,-4.455933838E0,-8.867559814E0,4.897814941E-1,9.936239195E0
5.495618333E0,-4.500541077E0,-8.831185455E0,4.781057739E-1,9.923370983E0
5.505608333E0,-4.487368469E0,-8.721164246E0,4.769082642E-1,9.819502180E0
5.515598333E0,-4.487368469E0,-8.671467590E0,4.740641785E-1,9.775252569E0
5.525588333E0,-4.497397614E0,-8.675658875E0,4.674778748E-1,9.783260079E0
5.535578333E0,-4.502187653E0,-8.730894012E0,4.351451111E-1,9.832983026E0
5.545568333E0,-4.483027496E0,-8.754544830E0,4.546046448E-1,9.846128991E0
5.555558333E0,-4.462071075E0,-8.796158295E0,5.328918457E-1,9.877573222E0
5.565548333E0,-4.398752747E0,-8.760682068E0,6.087840271E-1,9.821873244E0
5.575538333E0,-4.353546753E0,-8.731343079E0,7.000941467E-1,9.781607900E0
5.585528333E0,-4.339326324E0,-8.738228760E0,6.758445740E-1,9.779732138E0
5.595518333E0,-4.316124573E0,-8.740324402E0,5.635780334E-1,9.764211293E0
5.605508333E0,-4.327500916E0,-8.757089539E0,4.704716492E-1,9.779326405E0
5.615498333E0,-4.397704926E0,-8.801397400E0,4.285588074E-1,9.848252000E0
5.625488333E0,-4.453838196E0,-8.847202148E0,4.291575623E-1,9.914324825E0
5.635478333E0,-4.460424500E0,-8.814719696E0,3.998185730E-1,9.887088799E0
5.645469333E0,-4.485272827E0,-8.785380707E0,3.935316467E-1,9.871952879E0
5.655459333E0,-4.486021271E0,-8.738528137E0,4.120930481E-1,9.831382483E0
5.665449333E0,-4.442910919E0,-8.658145294E0,4.670288086E-1,9.742743622E0
5.675439333E0,-4.396208038E0,-8.641529846E0,5.260061646E-1,9.709756211E0
5.685429333E0,-4.356241150E0,-8.686286774E0,5.504054260E-1,9.733003699E0
5.695419333E0,-4.333338776E0,-8.757089539E0,5.739065552E-1,9.787431270E0
5.705409333E0,-4.323459320E0,-8.775800629E0,5.421725464E-1,9.798006340E0
5.715399333E0,-4.338278503E0,-8.794960785E0,4.543052673E-1,9.817249557E0
5.725389333E0,-4.350103912E0,-8.830287323E0,4.227209473E-1,9.852718978E0
5.735379333E0,-4.406536560E0,-8.846154327E0,4.314028931E-1,9.892326283E0
5.745369333E0,-4.464765472E0,-8.821306000E0,4.611909485E-1,9.897588967E0
5.755359333E0,-4.502037964E0,-8.762328644E0,4.707710266E-1,9.862473039E0
5.765349333E0,-4.514611816E0,-8.699908447E0,5.029541016E-1,9.814432723E0
5.775339333E0,-4.493655396E0,-8.687933350E0,4.938230896E-1,9.793721762E0
5.785329333E0,-4.408332825E0,-8.696166229E0,5.354365540E-1,9.764394384E0
5.795319333E0,-4.333189087E0,-8.705446930E0,5.516029358E-1,9.739897315E0
5.805309333E0,-4.299060059E0,-8.706195374E0,5.860313416E-1,9.727445091E0
5.815299333E0,-4.295467529E0,-8.748257904E0,5.652246094E-1,9.762301804E0
5.825289333E0,-4.325255585E0,-8.809929657E0,5.275030518E-1,9.828578529E0
5.835279333E0,-4.397555237E0,-8.891809387E0,4.805007935E-1,9.931447390E0
5.845269333E0,-4.478237457E0,-8.862021332E0,4.085005188E-1,9.937650904E0
5.855259333E0,-4.446653137E0,-8.716823273E0,3.418890381E-1,9.791456490E0
5.865246083E0,-4.414769440E0,-8.628207550E0,3.291654968E-1,9.697654596E0
5.875236083E0,-4.434228973E0,-8.672964478E0,4.162843323E-1,9.749666254E0
5.885226083E0,-4.450395355E0,-8.766070862E0,5.553451538E-1,9.846746946E0
5.895216083E0,-4.411476288E0,-8.833430786E0,5.965095520E-1,9.891736255E0
5.905206083E0,-4.343667297E0,-8.877888336E0,5.670208740E-1,9.899790885E0
5.915196083E0,-4.331542511E0,-8.872798920E0,5.040019226E-1,9.886497819E0
5.925186083E0,-4.330045624E0,-8.811276855E0,4.552033997E-1,9.828280880E0
5.935176083E0,-4.342619476E0,-8.797056427E0,3.965254211E-1,9.818542565E0
5.945166083E0,-4.389172668E0,-8.776100006E0,3.948788452E-1,9.820422462E0
5.955157083E0,-4.390070801E0,-8.724158020E0,4.035607910E-1,9.774789824E0
5.965147083E0,-4.358636169E0,-8.737180939E0,4.555027771E-1,9.774636709E0
5.975137083E0,-4.344266052E0,-8.815318451E0,5.297483826E-1,9.841906333E0
5.985127083E0,-4.318968658E0,-8.827293549E0,5.363346863E-1,9.841862454E0
5.995117083E0,-4.310586090E0,-8.818761292E0,5.544470215E-1,9.831536739E0
6.005107083E0,-4.329147491E0,-8.788524170E0,5.459147644E-1,9.812119955E0
6.015097083E0,-4.422403564E0,-8.732241211E0,5.049000549E-1,9.801255732E0
6.025087083E0,-4.513264618E0,-8.757538605E0,4.126918030E-1,9.860748169E0
6.035077083E0,-4.554728394E0,-8.763376465E0,3.053649902E-1,9.881071075E0
6.045067083E0,-4.503684540E0,-8.705147552E0,2.808160400E-1,9.805183629E0
6.055057083E0,-4.431684265E0,-8.714877319E0,3.936813354E-1,9.784881047E0
6.065047083E0,-4.381837921E0,-8.771309967E0,5.313949585E-1,9.819305612E0
6.075037083E0,-4.328848114E0,-8.805738373E0,6.210585022E-1,9.831870013E0
6.085027083E0,-4.278702393E0,-8.785380707E0,6.138734436E-1,9.791171990E0
6.095017083E0,-4.292324066E0,-8.776698761E0,5.144801331E-1,9.783617779E0
6.105007083E0,-4.323609009E0,-8.797056427E0,4.486170959E-1,9.812392875E0
6.114997083E0,-4.332290955E0,-8.780890045E0,4.324507141E-1,9.801009566E0
6.124987083E0,-4.349355469E0,-8.774752808E0,4.279600525E-1,9.802873540E0
6.134977083E0,-4.422553253E0,-8.775501251E0,4.153862000E-1,9.835697493E0
6.144967083E0,-4.486919403E0,-8.772507477E0,3.821553040E-1,9.860799959E0
6.154957083E0,-4.478387146E0,-8.745713196E0,3.673361206E-1,9.832516797E0
6.164947083E0,-4.460723877E0,-8.749605103E0,3.776646423E-1,9.828340528E0
6.174937083E0,-4.447102203E0,-8.749156036E0,3.860472107E-1,9.822091519E0
6.184927083E0,-4.384532318E0,-8.750503235E0,4.487667847E-1,9.797796800E0
6.194917083E0,-4.286336517E0,-8.761430511E0,4.956193542E-1,9.766318851E0
6.204907083E0,-4.216431885E0,-8.756640472E0,5.337899780E-1,9.733549298E0
6.214897083E0,-4.231101379E0,-8.790619812E0,5.315446472E-1,9.770350827E0
6.224887083E0,-4.298760681E0,-8.852291565E0,4.921765137E-1,9.853154168E0
6.234878083E0,-4.363575897E0,-8.870703278E0,4.074526978E-1,9.894250298E0
6.244868083E0,-4.438270569E0,-8.798553314E0,3.742218018E-1,9.861684847E0
6.254858083E0,-4.499792633E0,-8.735234985E0,4.008663940E-1,9.834284817E0
6.264848083E0,-4.509672089E0,-8.712631989E0,4.396357727E-1,9.820406210E0
6.274838083E0,-4.445305939E0,-8.720415802E0,4.501139832E-1,9.798418201E0
6.284828083E0,-4.383634186E0,-8.730295258E0,5.149291992E-1,9.782609879E0
6.294818083E0,-4.308939514E0,-8.756041718E0,5.472619629E-1,9.774186511E0
6.304808083E0,-4.311484222E0,-8.759035492E0,5.051994324E-1,9.775726337E0
6.314798083E0,-4.306843872E0,-8.815168762E0,4.564009094E-1,9.821629510E0
6.324788083E0,-4.338128815E0,-8.810079346E0,4.026626587E-1,9.828478870E0
6.334778083E0,-4.341571655E0,-8.785081329E0,3.838018799E-1,9.806844665E0
6.344768083E0,-4.406536560E0,-8.757837982E0,4.255650330E-1,9.813174623E0
6.354758083E0,-4.442162476E0,-8.748108215E0,4.288581848E-1,9.820698761E0
6.364748083E0,-4.448748779E0,-8.764723663E0,4.056564331E-1,9.837494790E0
6.374738083E0,-4.430935822E0,-8.783434753E0,4.583468628E-1,9.848451664E0
6.384728083E0,-4.402195587E0,-8.769214325E0,4.806504822E-1,9.823923389E0
6.394718083E0,-4.362677765E0,-8.802295532E0,4.463717651E-1,9.834257047E0
6.404708083E0,-4.320465546E0,-8.806786194E0,4.403842163E-1,9.819360664E0
6.414698083E0,-4.344864807E0,-8.805289307E0,4.489164734E-1,9.829165578E0
6.424688083E0,-4.439617767E0,-8.819958801E0,4.185296631E-1,9.883169849E0
6.434678083E0,-4.409230957E0,-8.772208099E0,3.674858093E-1,9.824866329E0
6.444668083E0,-4.306993561E0,-8.749455414E0,4.002676392E-1,9.760295987E0
6.454658083E0,-4.267924805E0,-8.781488800E0,5.053491211E-1,9.776763545E0
6.464648083E0,-4.297114105E0,-8.780440979E0,5.769003296E-1,9.792555714E0
6.474639083E0,-4.351301422E0,-8.761131134E0,6.017486572E-1,9.800680806E0
6.484629083E0,-4.402644653E0,-8.786278839E0,5.233117676E-1,9.841536008E0
6.494619083E0,-4.412973175E0,-8.788673859E0,4.079017639E-1,9.842840255E0
6.504609083E0,-4.389322357E0,-8.781039734E0,3.124003601E-1,9.821934817E0
6.514599083E0,-4.393962708E0,-8.772357788E0,3.040177917E-1,9.815986769E0
6.524589083E0,-4.390968933E0,-8.741222534E0,3.369493103E-1,9.787906538E0
6.534579083E0,-4.416565704E0,-8.767118683E0,4.162843323E-1,9.825564374E0
6.544569083E0,-4.415966949E0,-8.785380707E0,4.813989258E-1,9.844563128E0
6.554559083E0,-4.365072784E0,-8.763376465E0,5.375321960E-1,9.805078701E0
6.564549083E0,-4.333039398E0,-8.790919189E0,5.757028198E-1,9.817684267E0
6.574539083E0,-4.331392822E0,-8.844358063E0,5.270539856E-1,9.862120422E0
6.584529083E0,-4.298161926E0,-8.807983704E0,3.972738647E-1,9.808802138E0
6.594519083E0,-4.317172394E0,-8.787775726E0,3.418890381E-1,9.796931551E0
6.604509083E0,-4.381388855E0,-8.788973236E0,3.679348755E-1,9.827410387E0
6.614499083E0,-4.436623993E0,-8.776698761E0,4.026626587E-1,9.842571352E0
6.624489083E0,-4.460723877E0,-8.744515686E0,4.273612976E-1,9.825846008E0
6.634479083E0,-4.458179169E0,-8.756341095E0,4.496649170E-1,9.836212147E0
6.644469083E0,-4.414470062E0,-8.757538605E0,4.537065125E-1,9.817732831E0
6.654459083E0,-4.342619476E0,-8.776848450E0,4.584965515E-1,9.803143971E0
6.664449083E0,-4.305945740E0,-8.786278839E0,4.382885742E-1,9.794486277E0
6.674439083E0,-4.294719086E0,-8.775501251E0,4.441264343E-1,9.780147367E0
6.684429083E0,-4.311633911E0,-8.777896271E0,4.664300537E-1,9.790771518E0
6.694420083E0,-4.354444885E0,-8.792865143E0,4.849914551E-1,9.823995337E0
6.704410083E0,-4.411625977E0,-8.803642731E0,4.776567078E-1,9.858738510E0
6.714400083E0,-4.429888000E0,-8.786428528E0,4.281097412E-1,9.849289920E0
6.724390083E0,-4.443359985E0,-8.776998138E0,4.126918030E-1,9.846291627E0
6.734380083E0,-4.415966949E0,-8.762328644E0,4.005670166E-1,9.820367676E0
6.744370083E0,-4.385580139E0,-8.769513702E0,4.032614136E-1,9.813271804E0
6.754360083E0,-4.343966675E0,-8.797954559E0,4.323010254E-1,9.821452799E0
6.764350083E0,-4.360282745E0,-8.815168762E0,4.914280701E-1,9.846865871E0
6.774340083E0,-4.397255859E0,-8.807834015E0,4.641847229E-1,9.855418133E0
6.784330083E0,-4.378544769E0,-8.805289307E0,4.543052673E-1,9.844346974E0
6.794320083E0,-4.361180878E0,-8.790170746E0,4.188290405E-1,9.821528300E0
6.804310083E0,-4.336182861E0,-8.786727905E0,4.041595459E-1,9.806753491E0
6.814300083E0,-4.341871033E0,-8.762029266E0,4.367916870E-1,9.788553923E0
6.824290083E0,-4.363575897E0,-8.742120667E0,4.664300537E-1,9.781770052E0
6.834280083E0,-4.382436676E0,-8.741372223E0,4.911286926E-1,9.790737814E0
6.844270083E0,-4.406686249E0,-8.756640472E0,5.318440247E-1,9.817356779E0
6.854260083E0,-4.399800568E0,-8.781488800E0,5.147795105E-1,9.835537023E0
6.864250083E0,-4.365970917E0,-8.774902496E0,4.607418823E-1,9.811875404E0
6.874239833E0,-4.352349243E0,-8.788524170E0,4.326004028E-1,9.816732864E0
6.884229833E0,-4.344715118E0,-8.806037750E0,3.983216858E-1,9.827589251E0
6.894220833E0,-4.380939789E0,-8.769962769E0,4.064048767E-1,9.811729986E0
6.904210833E0,-4.405039673E0,-8.740474091E0,4.272116089E-1,9.797079749E0
6.914200833E0,-4.384831696E0,-8.735684052E0,4.611909485E-1,9.785275772E0
6.924190833E0,-4.425696716E0,-8.788224792E0,4.719685364E-1,9.851012168E0
6.934180833E0,-4.390370178E0,-8.810827789E0,4.405339050E-1,9.853938642E0
6.944170833E0,-4.339326324E0,-8.812174988E0,4.387376404E-1,9.832429592E0
6.954160833E0,-4.324656830E0,-8.816366272E0,4.382885742E-1,9.829703343E0
6.964150833E0,-4.342918854E0,-8.813222809E0,4.358935547E-1,9.834828094E0
6.974140833E0,-4.373455353E0,-8.795409851E0,4.083508301E-1,9.831230674E0
6.984130833E0,-4.383035431E0,-8.768166504E0,4.180805969E-1,9.811551091E0
6.994120833E0,-4.413721619E0,-8.737180939E0,4.773573303E-1,9.800364243E0
7.004110833E0,-4.400099945E0,-8.720415802E0,5.020559692E-1,9.780521023E0
7.014100833E0,-4.342020721E0,-8.731792145E0,4.872367859E-1,9.763950926E0
7.024090833E0,-4.323159943E0,-8.769513702E0,5.285508728E-1,9.791498787E0
7.034080833E0,-4.364324341E0,-8.851992188E0,5.553451538E-1,9.885013954E0
7.044070833E0,-4.374652863E0,-8.830736389E0,5.104385376E-1,9.868132566E0
7.054060833E0,-4.381688232E0,-8.804989929E0,4.212240601E-1,9.844006762E0
7.064050833E0,-4.410578156E0,-8.791368256E0,3.757186890E-1,9.842891852E0
7.074040833E0,-4.426594849E0,-8.752149811E0,3.701802063E-1,9.814881642E0
7.084030833E0,-4.431983643E0,-8.724307709E0,3.881428528E-1,9.793195540E0
7.094021833E0,-4.445305939E0,-8.728199615E0,4.502636719E-1,9.805353170E0
7.104011833E0,-4.410578156E0,-8.703351288E0,4.523593140E-1,9.767607294E0
7.114001833E0,-4.358336792E0,-8.739875336E0,4.667294312E-1,9.777441221E0
7.123991833E0,-4.297413483E0,-8.825497284E0,4.596940613E-1,9.826926456E0
7.133981833E0,-4.223317566E0,-8.849896545E0,4.457730103E-1,9.816098701E0
7.143971833E0,-4.191583557E0,-8.853788452E0,4.305047607E-1,9.805318813E0
7.153961833E0,-4.269421692E0,-8.842412109E0,4.680766296E-1,9.830325998E0
7.163951833E0,-4.371210022E0,-8.807983704E0,5.393284607E-1,9.847788034E0
7.173941833E0,-4.457281036E0,-8.750503235E0,5.318440247E-1,9.834709918E0
7.183931833E0,-4.495751038E0,-8.727151794E0,4.851411438E-1,9.829054775E0
7.193921833E0,-4.497696991E0,-8.718170471E0,4.246669006E-1,9.819170869E0
7.203911833E0,-4.478237457E0,-8.732540588E0,3.848497009E-1,9.821404438E0
7.213901833E0,-4.428840179E0,-8.764124908E0,3.676354980E-1,9.826477833E0
7.223891833E0,-4.361929321E0,-8.772357788E0,3.920347595E-1,9.804814114E0
7.233881833E0,-4.314627686E0,-8.785081329E0,4.384382629E-1,9.797239108E0
7.243871833E0,-4.333638153E0,-8.802594910E0,4.945715332E-1,9.823985840E0
7.253861833E0,-4.344266052E0,-8.797206116E0,5.441184998E-1,9.826471794E0
7.263851833E0,-4.361779633E0,-8.788374481E0,5.697152710E-1,9.827778135E0
7.273841833E0,-4.371060333E0,-8.744365997E0,5.304968262E-1,9.790379564E0
7.283831833E0,-4.386478271E0,-8.740324402E0,4.894821167E-1,9.791529759E0
7.293822833E0,-4.415817261E0,-8.774154053E0,4.489164734E-1,9.832941951E0
7.303812833E0,-4.421954498E0,-8.790619812E0,3.963757324E-1,9.848136473E0
7.313802833E0,-4.434678040E0,-8.796906738E0,3.809577942E-1,9.858857252E0
7.323792833E0,-4.399052124E0,-8.796457672E0,3.968247986E-1,9.843109117E0
7.333782833E0,-4.405339050E0,-8.794511719E0,4.240681458E-1,9.845317786E0
7.343772833E0,-4.387226715E0,-8.790769501E0,4.628375244E-1,9.835629377E0
7.353762833E0,-4.348457336E0,-8.772806854E0,4.650828552E-1,9.802424362E0
7.363752833E0,-4.328249359E0,-8.739875336E0,5.049000549E-1,9.765965772E0
7.373742833E0,-4.337530060E0,-8.743168488E0,5.649252319E-1,9.776313351E0
7.383732833E0,-4.369114380E0,-8.766370239E0,5.432203674E-1,9.809867278E0
7.393722833E0,-4.375101929E0,-8.752748566E0,4.593946838E-1,9.796079206E0
7.403712833E0,-4.408482513E0,-8.796008606E0,3.944297791E-1,9.846829963E0
7.413702833E0,-4.471950531E0,-8.793763275E0,3.721261597E-1,9.872542326E0
7.423692833E0,-4.463867340E0,-8.744365997E0,3.556604004E-1,9.824283315E0
7.433682833E0,-4.427642670E0,-8.772507477E0,3.941304016E-1,9.834441815E0
7.443672833E0,-4.354295197E0,-8.770711212E0,4.629872131E-1,9.803041313E0
7.453662833E0,-4.303401031E0,-8.753347321E0,5.572911072E-1,9.769898829E0
7.463652833E0,-4.298910370E0,-8.760831757E0,6.233038330E-1,9.778614989E0
7.473642833E0,-4.303101654E0,-8.774902496E0,5.963598633E-1,9.791386151E0
7.483632833E0,-4.368815002E0,-8.768465881E0,4.790039062E-1,9.808260966E0
7.493623833E0,-4.425397339E0,-8.804540863E0,3.673361206E-1,9.860984598E0
7.503613833E0,-4.407883759E0,-8.780590668E0,3.152444458E-1,9.829933406E0
7.513603833E0,-4.441264343E0,-8.801247711E0,3.257226562E-1,9.863715603E0
7.523593833E0,-4.405339050E0,-8.805588684E0,4.126918030E-1,9.854730780E0
7.533583833E0,-4.361330566E0,-8.749455414E0,4.773573303E-1,9.787851877E0
7.543573833E0,-4.380341034E0,-8.733588409E0,5.604345703E-1,9.786574528E0
7.553563833E0,-4.416865082E0,-8.712931366E0,6.316864014E-1,9.788917093E0
7.563553833E0,-4.412823486E0,-8.694819031E0,5.971083069E-1,9.768798669E0
7.573543833E0,-4.370611267E0,-8.738228760E0,4.475692749E-1,9.780552283E0
7.583533833E0,-4.315525818E0,-8.790320435E0,3.278182983E-1,9.798008025E0
7.593523833E0,-4.301155701E0,-8.837173004E0,2.999761963E-1,9.832881205E0
7.603513833E0,-4.318220215E0,-8.837023315E0,3.803590393E-1,9.843001570E0
7.613503833E0,-4.334835663E0,-8.819210358E0,4.921765137E-1,9.839283982E0
7.623493833E0,-4.357438660E0,-8.777447205E0,5.851332092E-1,9.816986909E0
7.633483833E0,-4.388124847E0,-8.759783936E0,6.051914978E-1,9.816094489E0
7.643473833E0,-4.392316132E0,-8.721164246E0,5.662724304E-1,9.781196822E0
7.653463833E0,-4.438270569E0,-8.742869110E0,5.215155029E-1,9.818756761E0
7.663453833E0,-4.457430725E0,-8.798403625E0,4.583468628E-1,9.873736723E0
7.673443833E0,-4.433929596E0,-8.809031525E0,4.346960449E-1,9.871561615E0
7.683433833E0,-4.397255859E0,-8.779243469E0,4.593946838E-1,9.829649966E0
7.693424833E0,-4.395758972E0,-8.770711212E0,5.146298218E-1,9.824098735E0
7.703414833E0,-4.388873291E0,-8.745413818E0,5.529501343E-1,9.800521694E0
7.713404833E0,-4.410428467E0,-8.736881561E0,5.418731689E-1,9.801969456E0
7.723394833E0,-4.415667572E0,-8.743168488E0,5.001100159E-1,9.807712544E0
7.733384833E0,-4.424199829E0,-8.777147827E0,4.834945679E-1,9.841017991E0
7.743374833E0,-4.382885742E0,-8.760083313E0,4.872367859E-1,9.807453633E0
7.753364833E0,-4.331542511E0,-8.753047943E0,4.523593140E-1,9.776642459E0
7.763354833E0,-4.333488464E0,-8.752598877E0,4.689747620E-1,9.777885594E0
7.773344833E0,-4.325255585E0,-8.786129150E0,4.866380310E-1,9.805137322E0
7.783334833E0,-4.339026947E0,-8.770711212E0,5.228627014E-1,9.799281373E0
7.793324833E0,-4.385729828E0,-8.775950317E0,5.788462830E-1,9.827868188E0
7.803314833E0,-4.433779907E0,-8.779093781E0,5.981561279E-1,9.853358951E0
7.813304833E0,-4.427642670E0,-8.821605377E0,5.295986938E-1,9.884594874E0
7.823294833E0,-4.394262085E0,-8.832682343E0,4.101470947E-1,9.873906890E0
7.833284833E0,-4.336781616E0,-8.807085571E0,3.857478333E-1,9.824521995E0
7.843274833E0,-4.317920837E0,-8.762777710E0,4.152365112E-1,9.777685560E0
7.853264833E0,-4.339176636E0,-8.775201874E0,5.028044128E-1,9.802317791E0
7.863254833E0,-4.383783875E0,-8.748557281E0,5.405259705E-1,9.800356314E0
7.873244833E0,-4.417763214E0,-8.725355530E0,5.278024292E-1,9.794234852E0
7.883234833E0,-4.445455627E0,-8.736731873E0,4.932243347E-1,9.815081752E0
7.893225833E0,-4.401746521E0,-8.756490784E0,5.049000549E-1,9.813583818E0
7.903215833E0,-4.355343018E0,-8.758586426E0,5.301974487E-1,9.796068513E0
7.913205833E0,-4.361330566E0,-8.790320435E0,5.769003296E-1,9.829738127E0
7.923195833E0,-4.415817261E0,-8.811426544E0,5.807922363E-1,9.873094725E0
7.933185833E0,-4.447251892E0,-8.782237244E0,5.381309509E-1,9.858768955E0
7.943175833E0,-4.444407806E0,-8.723259888E0,4.706213379E-1,9.801505408E0
7.953165833E0,-4.418960724E0,-8.700507202E0,4.712200928E-1,9.769753724E0
7.963155833E0,-4.399201813E0,-8.738827515E0,5.041516113E-1,9.796644924E0
7.973145833E0,-4.371210022E0,-8.781638489E0,5.246589661E-1,9.823437211E0
7.983135833E0,-4.366719360E0,-8.809630280E0,5.403762817E-1,9.847326041E0
7.993125833E0,-4.409230957E0,-8.820707245E0,4.634362793E-1,9.872232124E0
8.003115833E0,-4.410727844E0,-8.806486816E0,4.108955383E-1,9.857868193E0
8.013105833E0,-4.362827454E0,-8.747359772E0,4.317022705E-1,9.784525191E0
8.023095833E0,-4.321363678E0,-8.729546814E0,4.855902100E-1,9.752690371E0
8.033085833E0,-4.347409515E0,-8.753497009E0,5.568420410E-1,9.789471510E0
8.043075833E0,-4.391268311E0,-8.780740356E0,6.134243774E-1,9.836713275E0
8.053065833E0,-4.406835938E0,-8.757987671E0,5.912704468E-1,9.822023812E0
8.063055833E0,-4.409380646E0,-8.762927399E0,5.300477600E-1,9.824076796E0
8.073045833E0,-4.390220490E0,-8.751700745E0,4.785548401E-1,9.802821869E0
8.083035833E0,-4.421954498E0,-8.772507477E0,4.308041382E-1,9.833420627E0
8.093025833E0,-4.430935822E0,-8.770112457E0,4.242178345E-1,9.835040698E0
8.103016833E0,-4.393363953E0,-8.762029266E0,4.652325439E-1,9.812810250E0
8.113006833E0,-4.380790100E0,-8.780141602E0,5.191204834E-1,9.826072182E0
8.122996833E0,-4.376898193E0,-8.786727905E0,5.626799011E-1,9.832620899E0
8.132986833E0,-4.356989594E0,-8.766070862E0,5.995033264E-1,9.807484943E0
8.142976833E0,-4.347708893E0,-8.739725647E0,6.200106812E-1,9.781093510E0
8.152966833E0,-4.372407532E0,-8.749605103E0,5.992039490E-1,9.799621546E0
8.162956833E0,-4.431235199E0,-8.757837982E0,5.560935974E-1,9.830809305E0
8.172946833E0,-4.459226990E0,-8.765023041E0,4.767585754E-1,9.845691088E0
8.182936833E0,-4.438270569E0,-8.754395142E0,3.954776001E-1,9.823140153E0
8.192926833E0,-4.435875549E0,-8.767867126E0,3.670367432E-1,9.832965057E0
8.202916833E0,-4.428091736E0,-8.804540863E0,4.336482239E-1,9.864886569E0
8.212906833E0,-4.386777649E0,-8.801846466E0,5.523513794E-1,9.849944741E0
8.222896833E0,-4.335135040E0,-8.766669617E0,6.322851562E-1,9.800391651E0
8.232886833E0,-4.330644379E0,-8.731343079E0,6.489006042E-1,9.767901754E0
8.242876833E0,-4.362827454E0,-8.753497009E0,6.192622375E-1,9.800074439E0
8.252866833E0,-4.419559479E0,-8.751700745E0,5.456153870E-1,9.819494287E0
8.262856833E0,-4.473297729E0,-8.753047943E0,4.605921936E-1,9.840649676E0
8.272846833E0,-4.443060608E0,-8.734336853E0,3.848497009E-1,9.807014689E0
8.282836833E0,-4.418661346E0,-8.726403351E0,3.927832031E-1,9.789226843E0
8.292826833E0,-4.368815002E0,-8.742869110E0,4.769082642E-1,9.785282126E0
8.302817833E0,-4.335733795E0,-8.758436737E0,5.851332092E-1,9.790361714E0
8.312807833E0,-4.323609009E0,-8.769513702E0,6.357279968E-1,9.798066928E0
8.322797833E0,-4.325854340E0,-8.769214325E0,6.307882690E-1,9.798470773E0
8.332787833E0,-4.362977142E0,-8.800349579E0,6.004014587E-1,9.840843671E0
8.342777833E0,-4.399201813E0,-8.818761292E0,5.384303284E-1,9.869824442E0
8.352767833E0,-4.417912903E0,-8.787626038E0,4.571493530E-1,9.846284138E0
8.362757833E0,-4.451742554E0,-8.796158295E0,4.137396240E-1,9.867197828E0
8.372747833E0,-4.493505707E0,-8.784332886E0,4.058061218E-1,9.875260827E0
8.382737833E0,-4.481231232E0,-8.741072845E0,4.574487305E-1,9.833465675E0
8.392727833E0,-4.444258118E0,-8.699309692E0,5.041516113E-1,9.781798822E0
8.402717833E0,-4.395758972E0,-8.687184906E0,5.466632080E-1,9.751344481E0
8.412707833E0,-4.337829437E0,-8.746311951E0,6.071374512E-1,9.781786792E0
8.422697833E0,-4.298161926E0,-8.788524170E0,6.527925110E-1,9.805023768E0
8.432687833E0,-4.302353210E0,-8.783584442E0,6.288423157E-1,9.800869424E0
8.442677833E0,-4.344116364E0,-8.787326660E0,6.039939880E-1,9.821062343E0
8.452667833E0,-4.423152008E0,-8.835376740E0,5.324427795E-1,9.895031639E0
8.462657833E0,-4.478237457E0,-8.829688568E0,4.225712585E-1,9.909418621E0
8.472647833E0,-4.473597107E0,-8.816066895E0,3.222798157E-1,9.891408941E0
8.482637833E0,-4.444856873E0,-8.764424286E0,2.877017212E-1,9.831310084E0
8.492627833E0,-4.390519867E0,-8.732839966E0,3.805087280E-1,9.781817084E0
8.502618833E0,-4.354744263E0,-8.708889771E0,5.432203674E-1,9.752109874E0
8.512607833E0,-4.367916870E0,-8.708440704E0,6.384223938E-1,9.763361124E0
8.522598833E0,-4.379742279E0,-8.717122650E0,6.906637573E-1,9.779948167E0
8.532588833E0,-4.388424225E0,-8.735085297E0,6.361770630E-1,9.796157592E0
8.542578833E0,-4.381239166E0,-8.765023041E0,5.749543762E-1,9.815877855E0
8.552568833E0,-4.381388855E0,-8.787476349E0,5.300477600E-1,9.833476471E0
8.562558833E0,-4.386627960E0,-8.782835999E0,4.816983032E-1,9.829178312E0
8.572548833E0,-4.395309906E0,-8.743617554E0,4.296066284E-1,9.795619376E0
8.582538833E0,-4.396806793E0,-8.694220276E0,4.550537109E-1,9.753381468E0
8.592528833E0,-4.403991852E0,-8.672216034E0,5.360353088E-1,9.741140027E0
8.602518833E0,-4.439617767E0,-8.725804596E0,5.638774109E-1,9.806519745E0
8.612508833E0,-4.459825745E0,-8.776998138E0,5.456153870E-1,9.860194630E0
8.622498833E0,-4.439767456E0,-8.785829773E0,4.784051514E-1,9.855516798E0
8.632488833E0,-4.400399323E0,-8.793912964E0,4.305047607E-1,9.842852928E0
8.642478833E0,-4.393813019E0,-8.833879852E0,4.357438660E-1,9.875874584E0
8.652468833E0,-4.363276520E0,-8.810229034E0,5.035528564E-1,9.844383328E0
8.662458833E0,-4.356690216E0,-8.773106232E0,5.923182678E-1,9.813204549E0
8.672448833E0,-4.358037415E0,-8.749605103E0,6.201603699E-1,9.794522880E0
8.682438833E0,-4.360582123E0,-8.720565491E0,6.053411865E-1,9.768796081E0
8.692428833E0,-4.348756714E0,-8.696615295E0,5.459147644E-1,9.738625441E0
8.702418833E0,-4.353995819E0,-8.732989655E0,5.007087708E-1,9.771033577E0
8.712408833E0,-4.417463837E0,-8.809330902E0,4.561015320E-1,9.865410600E0
8.722398833E0,-4.417463837E0,-8.793314209E0,4.333488464E-1,9.850083896E0
8.732389833E0,-4.435725861E0,-8.764274597E0,4.219725037E-1,9.831898795E0
8.742379833E0,-4.465364227E0,-8.779243469E0,4.273612976E-1,9.858865617E0
8.752369833E0,-4.406686249E0,-8.746611328E0,4.626878357E-1,9.804905581E0
8.762359833E0,-4.327351227E0,-8.713679810E0,5.373825073E-1,9.743868042E0
8.772349833E0,-4.307292938E0,-8.760831757E0,6.376739502E-1,9.783229201E0
8.782339833E0,-4.299808502E0,-8.788973236E0,6.828799438E-1,9.808197017E0
8.792329833E0,-4.312232666E0,-8.786727905E0,6.286926270E-1,9.808016735E0
8.802319833E0,-4.332290955E0,-8.779093781E0,5.295986938E-1,9.804167853E0
8.812309833E0,-4.397106171E0,-8.792266388E0,4.478686523E-1,9.840684795E0
8.822299833E0,-4.473896484E0,-8.825946350E0,3.906875610E-1,9.902813514E0
8.832289833E0,-4.500690765E0,-8.825347595E0,3.511697388E-1,9.912935878E0
8.842279833E0,-4.445455627E0,-8.782237244E0,3.064128113E-1,9.848028003E0
8.852269833E0,-4.353995819E0,-8.734037476E0,3.797602844E-1,9.766519753E0
8.862259833E0,-4.304897919E0,-8.737779694E0,5.547463989E-1,9.756468810E0
8.872249458E0,-4.316873016E0,-8.756041718E0,7.066804504E-1,9.787903578E0
8.882239458E0,-4.329895935E0,-8.763226776E0,7.586224365E-1,9.803960952E0
8.892229458E0,-4.369264069E0,-8.793164520E0,6.460565186E-1,9.840101616E0
8.902219458E0,-4.404889984E0,-8.778644714E0,4.531077576E-1,9.832241120E0
8.912209458E0,-4.432133331E0,-8.768765259E0,3.131488037E-1,9.830214250E0
8.922199458E0,-4.465064850E0,-8.786278839E0,2.942880249E-1,9.860127048E0
8.932190458E0,-4.474794617E0,-8.785380707E0,3.872447205E-1,9.866947831E0
8.942180458E0,-4.430187378E0,-8.765172729E0,4.911286926E-1,9.833413475E0
8.952170458E0,-4.362977142E0,-8.769064636E0,5.766009521E-1,9.811449067E0
8.962160458E0,-4.305796051E0,-8.776549072E0,5.783972168E-1,9.792968732E0
8.972150458E0,-4.259242859E0,-8.763376465E0,5.876779175E-1,9.761315594E0
8.982140458E0,-4.278103638E0,-8.780440979E0,6.111790466E-1,9.786309537E0
8.992130458E0,-4.333039398E0,-8.782087555E0,5.688171387E-1,9.809375372E0
9.002120458E0,-4.384981384E0,-8.776100006E0,5.075944519E-1,9.823728680E0
9.012110458E0,-4.424349518E0,-8.769364014E0,4.234693909E-1,9.831375295E0
9.022100458E0,-4.453688507E0,-8.767567749E0,3.734733582E-1,9.840989173E0
9.032090458E0,-4.506528625E0,-8.720565491E0,3.933819580E-1,9.824042554E0
9.042080458E0,-4.488266602E0,-8.734187164E0,4.369413757E-1,9.829622591E0
9.052070458E0,-4.434528351E0,-8.755742340E0,4.763095093E-1,9.826237142E0
9.062060458E0,-4.393363953E0,-8.774154053E0,5.456153870E-1,9.827773009E0
9.072050458E0,-4.361929321E0,-8.780890045E0,5.791456604E-1,9.821703879E0
9.082040458E0,-4.364623718E0,-8.779692535E0,5.999523926E-1,9.823079155E0
9.092030458E0,-4.405788116E0,-8.803942108E0,5.502557373E-1,9.860179864E0
9.102020458E0,-4.410578156E0,-8.806337128E0,4.966671753E-1,9.861615058E0
9.112010458E0,-4.408781891E0,-8.759634247E0,4.602928162E-1,9.817352972E0
9.122000458E0,-4.367617493E0,-8.728798370E0,4.502636719E-1,9.770913004E0
9.131990458E0,-4.368665314E0,-8.705147552E0,4.766088867E-1,9.751512014E0
9.141981458E0,-4.388873291E0,-8.717272339E0,5.394781494E-1,9.774665338E0
9.151971458E0,-4.418361969E0,-8.742270355E0,5.875282288E-1,9.812971154E0
9.161961458E0,-4.419260101E0,-8.757388916E0,5.887257385E-1,9.826918055E0
9.171951458E0,-4.382736053E0,-8.753946075E0,5.132826233E-1,9.803234479E0
9.181941458E0,-4.322710876E0,-8.756790161E0,4.454736328E-1,9.775768512E0
9.191931458E0,-4.309987335E0,-8.797804871E0,4.468208313E-1,9.806987826E0
9.201921458E0,-4.356690216E0,-8.830137634E0,4.854405212E-1,9.858383883E0
9.211911458E0,-4.415218506E0,-8.804989929E0,4.809498596E-1,9.861709531E0
9.221901458E0,-4.499493256E0,-8.801996155E0,4.686753845E-1,9.896475761E0
9.231891458E0,-4.548740845E0,-8.788673859E0,4.323010254E-1,9.905489167E0
9.241881458E0,-4.502337341E0,-8.722062378E0,4.430786133E-1,9.825565242E0
9.251871458E0,-4.428989868E0,-8.689430237E0,4.992118835E-1,9.765826212E0
9.261861458E0,-4.400099945E0,-8.755143585E0,5.510041809E-1,9.814123717E0
9.271851458E0,-4.364324341E0,-8.785979462E0,6.167175293E-1,9.829603378E0
9.281841458E0,-4.284989319E0,-8.756640472E0,6.429130554E-1,9.770016531E0
9.291831458E0,-4.251908112E0,-8.733438721E0,5.846841431E-1,9.731060067E0
9.301821458E0,-4.286486206E0,-8.763975220E0,5.282514954E-1,9.770377438E0
9.311811458E0,-4.351301422E0,-8.797505493E0,4.784051514E-1,9.826433659E0
9.321801458E0,-4.414170685E0,-8.786877594E0,4.490661621E-1,9.843565467E0
9.331791458E0,-4.482877808E0,-8.753197632E0,4.415817261E-1,9.844270244E0
9.341781458E0,-4.539609833E0,-8.747958527E0,4.002676392E-1,9.863825323E0
9.351771458E0,-4.538262634E0,-8.740923157E0,3.995191956E-1,9.856935678E0
9.361762458E0,-4.488865356E0,-8.752449188E0,4.616400146E-1,9.847252941E0
9.371752458E0,-4.406985626E0,-8.756640472E0,5.472619629E-1,9.818338471E0
9.381742458E0,-4.315825195E0,-8.750952301E0,6.099815369E-1,9.776379226E0
9.391732458E0,-4.300257568E0,-8.783734131E0,6.288423157E-1,9.800083831E0
9.401722458E0,-4.309538269E0,-8.789871368E0,6.062393188E-1,9.808235564E0
9.411712458E0,-4.331093445E0,-8.774154053E0,5.192701721E-1,9.798662729E0
9.421702458E0,-4.362677765E0,-8.763226776E0,4.156855774E-1,9.797953629E0
9.431692458E0,-4.373305664E0,-8.802295532E0,3.918850708E-1,9.836655071E0
9.441682458E0,-4.415068817E0,-8.797056427E0,3.959266663E-1,9.850776232E0
9.451672458E0,-4.409829712E0,-8.754844208E0,4.543052673E-1,9.813271038E0
9.461662458E0,-4.411027222E0,-8.728648682E0,5.312452698E-1,9.794319297E0
9.471652458E0,-4.432732086E0,-8.722960510E0,5.818400574E-1,9.801922855E0
9.481642458E0,-4.421954498E0,-8.700058136E0,5.987548828E-1,9.777688917E0
9.491632458E0,-4.415667572E0,-8.699160004E0,5.373825073E-1,9.770480277E0
9.501622458E0,-4.381089478E0,-8.767717438E0,4.957690430E-1,9.813898360E0
9.511612458E0,-4.371958466E0,-8.835975494E0,4.749623108E-1,9.869856785E0
9.521602458E0,-4.360881500E0,-8.840017090E0,4.679269409E-1,9.868239216E0
9.531592458E0,-4.340523834E0,-8.808283081E0,4.842430115E-1,9.831606648E0
9.541582458E0,-4.360282745E0,-8.773405609E0,5.670208740E-1,9.813573471E0
9.551572458E0,-4.433181152E0,-8.730295258E0,6.291416931E-1,9.811573252E0
9.561562458E0,-4.472399597E0,-8.706045685E0,6.174659729E-1,9.807081821E0
9.571553458E0,-4.466262360E0,-8.688831482E0,5.589376831E-1,9.785484317E0
9.581543458E0,-4.428840179E0,-8.693771210E0,4.947212219E-1,9.769392625E0
9.591533458E0,-4.396208038E0,-8.746162262E0,4.754113770E-1,9.800408941E0
9.601523458E0,-4.379891968E0,-8.769364014E0,4.939727783E-1,9.814744416E0
9.611513458E0,-4.416715393E0,-8.780141602E0,5.038522339E-1,9.841347900E0
9.621503458E0,-4.410428467E0,-8.797954559E0,5.294490051E-1,9.855769881E0
9.631493458E0,-4.385131073E0,-8.789422302E0,5.093907166E-1,9.835791673E0
9.641483458E0,-4.363276520E0,-8.763975220E0,5.378315735E-1,9.804830771E0
9.651473458E0,-4.383634186E0,-8.739875336E0,5.568420410E-1,9.793454070E0
9.661463458E0,-4.415517883E0,-8.733438721E0,5.640270996E-1,9.802442381E0
9.671453458E0,-4.441114655E0,-8.742270355E0,5.236111450E-1,9.819621121E0
9.681443458E0,-4.435127106E0,-8.726403351E0,4.652325439E-1,9.799842305E0
9.691433458E0,-4.408332825E0,-8.733588409E0,4.260140991E-1,9.792367069E0
9.701423458E0,-4.380041656E0,-8.748257904E0,4.589456177E-1,9.794254048E0
9.711413458E0,-4.356390839E0,-8.751101990E0,4.754113770E-1,9.787029332E0
9.721403458E0,-4.332740021E0,-8.773405609E0,5.054988098E-1,9.798000363E0
9.731393458E0,-4.385131073E0,-8.788374481E0,5.372328186E-1,9.836336699E0
9.741383458E0,-4.421056366E0,-8.806786194E0,5.370831299E-1,9.868823676E0
9.751373458E0,-4.432283020E0,-8.806486816E0,5.168751526E-1,9.872512484E0
9.761363458E0,-4.449946289E0,-8.799152069E0,5.201683044E-1,9.874091056E0
9.771353458E0,-4.439019012E0,-8.799601135E0,5.414241028E-1,9.870714766E0
9.781343458E0,-4.432582397E0,-8.784931641E0,5.858816528E-1,9.857285019E0
9.791333458E0,-4.427942047E0,-8.746461639E0,5.981561279E-1,9.821662422E0
9.801324458E0,-4.445305939E0,-8.710536346E0,5.581892395E-1,9.795190838E0
9.811314458E0,-4.463418274E0,-8.691525879E0,5.098397827E-1,9.783898068E0
9.821304458E0,-4.457131348E0,-8.683442688E0,4.584965515E-1,9.771305739E0
9.831294458E0,-4.430935822E0,-8.709189148E0,4.370910645E-1,9.781319771E0
9.841284458E0,-4.352498932E0,-8.753946075E0,4.700225830E-1,9.787580910E0
9.851274458E0,-4.308789825E0,-8.803043976E0,5.292993164E-1,9.815264172E0
9.861264458E0,-4.266727295E0,-8.795709229E0,5.930667114E-1,9.793936429E0
9.871255333E0,-4.260590057E0,-8.796158295E0,6.246510315E-1,9.793631466E0
9.881245333E0,-4.339775391E0,-8.812773743E0,6.075865173E-1,9.842143712E0
9.891235333E0,-4.434228973E0,-8.804989929E0,5.668711853E-1,9.874795045E0
9.901225333E0,-4.500241699E0,-8.788374481E0,4.438270569E-1,9.883556234E0
9.911215333E0,-4.511468353E0,-8.785530396E0,3.480262756E-1,9.882308097E0
9.921205333E0,-4.460274811E0,-8.742420044E0,3.835025024E-1,9.821966900E0
9.931195333E0,-4.392166443E0,-8.719966736E0,4.561015320E-1,9.774301742E0
9.941185333E0,-4.346062317E0,-8.720415802E0,5.370831299E-1,9.758194900E0
9.951175333E0,-4.343667297E0,-8.763825531E0,6.304888916E-1,9.801510076E0
9.961165333E0,-4.361629944E0,-8.794811096E0,6.530918884E-1,9.838650670E0
9.971155333E0,-4.370461578E0,-8.813372498E0,6.010002136E-1,9.855844482E0
9.981145333E0,-4.384083252E0,-8.758586426E0,5.495072937E-1,9.809942936E0
9.991135333E0,-4.385430450E0,-8.707841949E0,5.092410278E-1,9.763085479E0
1.000112533E1,-4.396507416E0,-8.717122650E0,5.119354248E-1,9.776481097E0
1.001111633E1,-4.412374420E0,-8.736432495E0,5.242098999E-1,9.801484417E0
1.002110633E1,-4.399650879E0,-8.735234985E0,5.248086548E-1,9.794727267E0
1.003109633E1,-4.408183136E0,-8.729995880E0,5.043013000E-1,9.792815041E0
1.004108633E1,-4.449646912E0,-8.765472107E0,5.068460083E-1,9.843259205E0
1.005107633E1,-4.480931854E0,-8.777447205E0,5.176235962E-1,9.868650561E0
1.006106633E1,-4.459077301E0,-8.774453430E0,4.748126221E-1,9.853925634E0
1.007105633E1,-4.409530334E0,-8.768166504E0,4.158352661E-1,9.823320242E0
1.008104633E1,-4.375101929E0,-8.782087555E0,4.697232056E-1,9.822790774E0
1.009103633E1,-4.348008270E0,-8.791667633E0,5.188211060E-1,9.821800804E0
1.010102633E1,-4.338727570E0,-8.804241486E0,5.839356995E-1,9.832609316E0
1.011101633E1,-4.341871033E0,-8.791218567E0,5.888754272E-1,9.822634180E0
1.012100633E1,-4.361929321E0,-8.751700745E0,5.578898621E-1,9.794382800E0
1.013099633E1,-4.380490723E0,-8.767118683E0,4.992118835E-1,9.813270682E0
1.014098633E1,-4.431085510E0,-8.792715454E0,4.637356567E-1,9.857048981E0
1.015097633E1,-4.445305939E0,-8.780291290E0,4.299060059E-1,9.850841548E0
1.016096633E1,-4.403093719E0,-8.753646698E0,4.773573303E-1,9.810271904E0
1.017095633E1,-4.342619476E0,-8.720715179E0,5.544470215E-1,9.757900832E0
1.018094633E1,-4.348756714E0,-8.752449188E0,5.707630920E-1,9.789934742E0
1.019093633E1,-4.375101929E0,-8.776100006E0,5.578898621E-1,9.822051176E0
1.020092633E1,-4.396208038E0,-8.769364014E0,5.060975647E-1,9.822653667E0
1.021091633E1,-4.416865082E0,-8.779692535E0,4.881349182E-1,9.840222247E0
1.022090733E1,-4.426744537E0,-8.780141602E0,5.176235962E-1,9.846567317E0
1.023089733E1,-4.397704926E0,-8.748706970E0,5.203179932E-1,9.805631702E0
1.024088733E1,-4.355343018E0,-8.766220551E0,5.108876038E-1,9.801869295E0
1.025087733E1,-4.351750488E0,-8.792865143E0,5.295986938E-1,9.825104809E0
1.026086733E1,-4.404141541E0,-8.775501251E0,5.483097839E-1,9.833947760E0
1.027085733E1,-4.424798584E0,-8.747509460E0,4.755610657E-1,9.814475156E0
1.028084733E1,-4.415068817E0,-8.740324402E0,3.876937866E-1,9.799816824E0
1.029083733E1,-4.417763214E0,-8.762328644E0,3.933819580E-1,9.820885115E0
1.030082733E1,-4.402644653E0,-8.772357788E0,4.608915710E-1,9.825984029E0
1.031081733E1,-4.355492706E0,-8.769513702E0,5.396278381E-1,9.806420626E0
1.032080733E1,-4.278103638E0,-8.772208099E0,5.694158936E-1,9.776402208E0
1.033079733E1,-4.264332275E0,-8.769962769E0,6.101312256E-1,9.770825801E0
1.034078733E1,-4.320764923E0,-8.758885803E0,6.318360901E-1,9.787047914E0
1.035077733E1,-4.381538544E0,-8.731941833E0,5.532495117E-1,9.785232405E0
1.036076733E1,-4.400848389E0,-8.732540588E0,4.373904419E-1,9.788566906E0
1.037075733E1,-4.427193604E0,-8.771010590E0,3.604504395E-1,9.831611998E0
1.038074733E1,-4.425696716E0,-8.803493042E0,3.432362366E-1,9.859315001E0
1.039073733E1,-4.403093719E0,-8.832682343E0,3.778143311E-1,9.876550781E0
1.040072733E1,-4.417763214E0,-8.820557556E0,4.623884583E-1,9.875863026E0
1.041071733E1,-4.434228973E0,-8.758885803E0,5.270539856E-1,9.831492918E0
1.042070733E1,-4.417164459E0,-8.712631989E0,5.966592407E-1,9.786587775E0
1.043069733E1,-4.407135315E0,-8.714727631E0,6.706054688E-1,9.788719582E0
1.044068833E1,-4.390819244E0,-8.741222534E0,6.581813049E-1,9.804155632E0
1.045067833E1,-4.345463562E0,-8.749006348E0,5.620811462E-1,9.784891459E0
1.046066833E1,-4.303101654E0,-8.774902496E0,4.438270569E-1,9.783280642E0
1.047065833E1,-4.309987335E0,-8.821006622E0,4.022135925E-1,9.825880339E0
1.048064833E1,-4.348607025E0,-8.815019073E0,3.884422302E-1,9.836962524E0
1.049063833E1,-4.394860840E0,-8.761131134E0,4.263134766E-1,9.810910443E0
1.050062833E1,-4.444707184E0,-8.732540588E0,4.674778748E-1,9.809751406E0
1.051061833E1,-4.448299713E0,-8.707841949E0,4.899311829E-1,9.790501229E0
1.052060833E1,-4.400099945E0,-8.736731873E0,4.737648010E-1,9.793662054E0
1.053059833E1,-4.317471771E0,-8.781339111E0,4.580474854E-1,9.796034227E0
1.054058833E1,-4.231999512E0,-8.826844482E0,4.659809875E-1,9.800007228E0
1.055057833E1,-4.204157410E0,-8.885372772E0,5.114863586E-1,9.843089308E0
1.056056833E1,-4.267026672E0,-8.939859467E0,5.092410278E-1,9.919069025E0
1.057055833E1,-4.347708893E0,-8.889863434E0,4.578977966E-1,9.906660127E0
1.058054833E1,-4.402644653E0,-8.792565765E0,4.219725037E-1,9.842283956E0
1.059053833E1,-4.456532593E0,-8.719817047E0,4.074526978E-1,9.801117783E0
1.060052833E1,-4.451143799E0,-8.684939575E0,4.505630493E-1,9.769537533E0
1.061051833E1,-4.408632202E0,-8.730594635E0,4.893324280E-1,9.792791573E0
1.062050833E1,-4.366719360E0,-8.802445221E0,4.917274475E-1,9.838347205E0
1.063049833E1,-4.326303406E0,-8.774603119E0,4.939727783E-1,9.795640365E0
1.064048833E1,-4.363575897E0,-8.755143585E0,5.251080322E-1,9.796380569E0
1.065047933E1,-4.416565704E0,-8.748407593E0,5.547463989E-1,9.815723692E0
1.066046933E1,-4.400998077E0,-8.713230743E0,5.316943359E-1,9.776086790E0
1.067045933E1,-4.369413757E0,-8.704848175E0,5.116360474E-1,9.753354796E0
1.068044933E1,-4.366719360E0,-8.722960510E0,5.195695496E-1,9.768737408E0
1.069043933E1,-4.343367920E0,-8.783285065E0,5.209167480E-1,9.812354237E0
1.070042933E1,-4.343816986E0,-8.813821564E0,5.225633240E-1,9.839983181E0
1.071041933E1,-4.356989594E0,-8.816216583E0,4.939727783E-1,9.846473595E0
1.072040933E1,-4.423750763E0,-8.820707245E0,4.210743713E-1,9.876828982E0
1.073039933E1,-4.489613800E0,-8.805289307E0,3.710783386E-1,9.890776056E0
1.074038933E1,-4.463567963E0,-8.754544830E0,3.676354980E-1,9.833648865E0
1.075037933E1,-4.425696716E0,-8.731492767E0,4.025129700E-1,9.797335049E0
1.076036933E1,-4.370162201E0,-8.727151794E0,4.751119995E-1,9.771756624E0
1.077035933E1,-4.322561188E0,-8.726852417E0,5.688171387E-1,9.755308364E0
1.078034933E1,-4.321513367E0,-8.744815063E0,6.303392029E-1,9.774691595E0
1.079033933E1,-4.341421967E0,-8.758137360E0,6.289920044E-1,9.795332850E0
1.080032933E1,-4.389921112E0,-8.788374481E0,5.325924683E-1,9.838220781E0
1.081031933E1,-4.427942047E0,-8.848998413E0,4.031117249E-1,9.903228905E0
1.082030933E1,-4.420158234E0,-8.857231293E0,3.035687256E-1,9.903559913E0
1.083029933E1,-4.364324341E0,-8.850195923E0,3.067121887E-1,9.872556264E0
1.084028933E1,-4.316873016E0,-8.811725922E0,3.390449524E-1,9.818190151E0
1.085027933E1,-4.293820953E0,-8.768615570E0,4.299060059E-1,9.772938993E0
1.086026933E1,-4.289330292E0,-8.757688293E0,5.174739075E-1,9.765410275E0
1.087025925E1,-4.340074768E0,-8.762478333E0,5.948629761E-1,9.796485976E0
1.088024925E1,-4.367767181E0,-8.733438721E0,5.806425476E-1,9.781998150E0
1.089023925E1,-4.455185394E0,-8.717422028E0,5.409750366E-1,9.804834404E0
1.090022925E1,-4.526287537E0,-8.729097748E0,4.998106384E-1,9.845518627E0
1.091021925E1,-4.540208588E0,-8.759334869E0,4.153862000E-1,9.874815799E0
1.092020925E1,-4.487967224E0,-8.772507477E0,3.510200500E-1,9.860119285E0
1.093019925E1,-4.432881775E0,-8.762178955E0,3.664379883E-1,9.826520120E0
1.094018925E1,-4.402644653E0,-8.803193665E0,4.306544495E-1,9.852155190E0
1.095017925E1,-4.336482239E0,-8.806337128E0,4.779560852E-1,9.827771560E0
1.096016925E1,-4.242178345E0,-8.779243469E0,5.342390442E-1,9.765070627E0
1.097015925E1,-4.240980835E0,-8.797804871E0,5.442681885E-1,9.781795175E0
1.098014925E1,-4.290677490E0,-8.769214325E0,5.086422729E-1,9.775875928E0
1.099013925E1,-4.316573639E0,-8.736432495E0,4.300556946E-1,9.754127774E0
1.100012925E1,-4.356390839E0,-8.707991638E0,4.013154602E-1,9.745168732E0
1.101011925E1,-4.378993835E0,-8.714727631E0,3.992198181E-1,9.761221294E0
1.102010925E1,-4.392765198E0,-8.711284790E0,4.114942932E-1,9.764844921E0
1.103009925E1,-4.396806793E0,-8.745264130E0,4.906796265E-1,9.800628611E0
1.104008925E1,-4.391118622E0,-8.799750824E0,5.589376831E-1,9.850378097E0
1.105007925E1,-4.412673798E0,-8.849148102E0,6.062393188E-1,9.906898520E0
1.106006925E1,-4.436474304E0,-8.825946350E0,5.273533630E-1,9.892306849E0
1.107006025E1,-4.463118896E0,-8.749305725E0,4.079017639E-1,9.830369515E0
1.108005025E1,-4.536166992E0,-8.712931366E0,3.149450684E-1,9.828080910E0
1.109004025E1,-4.578379211E0,-8.754544830E0,2.658471680E-1,9.883030209E0
1.110003025E1,-4.539310455E0,-8.770112457E0,2.607577515E-1,9.878674330E0
1.111002025E1,-4.462071075E0,-8.760532379E0,3.141966248E-1,9.836448819E0
1.112001025E1,-4.370012512E0,-8.717422028E0,4.390370178E-1,9.761311882E0
1.113000025E1,-4.315974884E0,-8.654852142E0,5.490582275E-1,9.686876160E0
1.113999025E1,-4.281097412E0,-8.628057861E0,6.391708374E-1,9.652964149E0
1.114998025E1,-4.243076477E0,-8.615933075E0,6.497987366E-1,9.626018862E0
1.115997025E1,-4.221521301E0,-8.616681519E0,6.083349609E-1,9.614494990E0
1.116996025E1,-4.222419434E0,-8.653055878E0,5.137316895E-1,9.641997830E0
1.117995025E1,-4.236789551E0,-8.692573700E0,2.621049500E-1,9.673671600E0
1.118994025E1,-4.219874725E0,-8.707093506E0,2.709365845E-2,9.675823173E0
1.119993025E1,-4.199966125E0,-8.703950043E0,-6.137237549E-2,9.664482830E0
1.120992025E1,-4.170178070E0,-8.675509186E0,-7.424560547E-2,9.626024994E0
1.121991025E1,-4.095034332E0,-8.673862610E0,-2.296224976E-1,9.594682134E0
1.122990025E1,-3.990252228E0,-8.707841949E0,-5.108876038E-1,9.592165053E0
1.123989025E1,-3.967798920E0,-8.830437012E0,-6.051914978E-1,9.699809423E0
1.124988025E1,-4.084855499E0,-9.044192505E0,-5.444178772E-1,9.938805428E0
1.125987025E1,-4.224215698E0,-9.147178345E0,-3.888912964E-1,1.008296119E1
1.126986025E1,-4.221970367E0,-9.110803986E0,-2.686912537E-1,1.004509721E1
1.127985125E1,-4.103267212E0,-8.910969543E0,-9.145980835E-2,9.810736206E0
1.128984125E1,-4.022285614E0,-8.645870819E0,6.601272583E-2,9.535943659E0
1.129983125E1,-4.026327209E0,-8.349636841E0,1.622625732E-1,9.271142072E0
1.130982125E1,-4.045337677E0,-8.056845703E0,1.969903564E-1,9.017556476E0
1.131981125E1,-4.026177521E0,-7.799680481E0,7.768844604E-2,8.777878817E0
1.132980125E1,-3.952680359E0,-7.580536194E0,-9.415420532E-2,8.549682802E0
1.133979125E1,-3.828139343E0,-7.376959534E0,-1.911524963E-1,8.313285877E0
1.134978125E1,-3.648662567E0,-7.141349487E0,-2.924917603E-1,8.024784262E0
1.135977125E1,-3.486849060E0,-6.924001465E0,-5.724096680E-1,7.773516931E0
1.136976125E1,-3.250640259E0,-6.794820099E0,-1.255439301E0,7.636253670E0
1.137975125E1,-2.896177368E0,-6.757697296E0,-2.227817230E0,7.682283886E0
1.138974125E1,-2.662513275E0,-6.737040253E0,-2.880759430E0,7.795861928E0
1.139973125E1,-2.646795959E0,-6.731651459E0,-3.041974182E0,7.846927242E0
1.140972125E1,-2.779120789E0,-6.784940643E0,-3.004701691E0,7.923835191E0
1.141971125E1,-2.953657837E0,-6.941065979E0,-3.069666595E0,8.144037362E0
1.142970125E1,-3.186274109E0,-7.249724121E0,-2.559228058E0,8.322288795E0
1.143969125E1,-3.223995667E0,-7.098089447E0,-2.604583740E-1,7.800311559E0
1.144968125E1,-4.999453583E0,-3.736080780E0,7.071295166E-1,6.281151795E0
1.145967125E1,-8.073161774E0,-1.635049896E0,-3.562591553E-2,8.237147467E0
1.146966125E1,-9.612560577E0,-4.864733734E0,-3.082539825E0,1.120575776E1
1.147965125E1,-9.821076965E0,-8.092471619E0,-2.732417908E0,1.301567352E1
1.148964225E1,-9.195078735E0,-1.101694016E1,9.807604980E-1,1.438347435E1
1.149963225E1,-8.185877380E0,-1.490345810E1,3.350931702E0,1.733062016E1
1.150962225E1,-7.098987579E0,-1.979588425E1,3.256178741E0,2.128086835E1
1.151961225E1,-6.271807709E0,-2.506238251E1,-1.972897339E-1,2.583597322E1
1.152960225E1,-5.682483215E0,-2.838921432E1,-4.393363953E0,2.928377968E1
1.153959225E1,-7.713160400E0,-2.655657532E1,-2.710862732E0,2.778656713E1
1.154958225E1,-1.097891922E1,-2.510115189E1,1.242117004E0,2.742530488E1
1.155957225E1,-1.223331070E1,-2.463112930E1,2.852168884E0,2.764925476E1
1.156956225E1,-1.179262711E1,-2.429897003E1,2.783162384E0,2.715238464E1
1.157955225E1,-1.030412247E1,-2.360381561E1,2.939736786E0,2.592213540E1
1.158954225E1,-8.261919250E0,-2.164768341E1,2.600991211E0,2.331623173E1
1.159953225E1,-6.235283661E0,-1.839090591E1,7.873626709E-1,1.943512600E1
1.160952225E1,-5.306315460E0,-1.521660690E1,-1.991907806E0,1.623791262E1
1.161951225E1,-4.779261475E0,-1.245589783E1,-7.690707092E0,1.539927617E1
1.162950225E1,-6.079158325E0,-1.020921982E1,-1.230396378E1,1.710473209E1
1.163949225E1,-7.870782623E0,-8.218060455E0,-8.539591827E0,1.422709968E1
1.164948225E1,-6.127058716E0,-4.087400208E0,-7.670648804E0,1.063421563E1
1.165947225E1,-3.180735626E0,-1.102607117E0,-6.138435059E0,7.000943261E0
1.166946225E1,1.892065430E0,1.388512573E0,-5.144052887E0,5.654127595E0
1.167945225E1,6.389612732E0,2.769091644E0,-3.789519653E0,7.928144714E0
1.168944225E1,7.767796783E0,3.356919250E0,-2.622696075E0,8.859238592E0
1.169943225E1,6.582262115E0,2.138153687E0,-1.431622925E0,7.067348862E0
1.170942325E1,4.635410614E0,-1.705702972E0,9.624984741E-2,4.940214390E0
1.171941325E1,2.578687592E0,-4.418361969E0,1.018482056E0,5.216211066E0
1.172940325E1,6.846762085E-1,-4.937781830E0,1.854942627E0,5.318955072E0
1.173939325E1,-6.271957397E-2,-3.577111359E0,2.445314941E0,4.333500269E0
1.174938325E1,-1.073268127E-1,-2.492915955E0,2.704875183E0,3.680013418E0
1.175937325E1,-2.888992310E-1,-1.586101685E0,2.282303925E0,2.794296427E0
1.176936325E1,-4.782554626E-1,-3.152444458E-1,1.474284210E0,1.581651441E0
1.177935325E1,-5.604345703E-1,3.182382202E-1,9.364526367E-1,1.136796382E0
1.178934325E1,-6.581813049E-1,5.896238708E-1,8.050259399E-1,1.195376804E0
1.179933325E1,-7.553292847E-1,8.161029053E-1,1.012494507E0,1.503892086E0
1.180932325E1,-8.475375366E-1,9.559121704E-1,1.390608215E0,1.888353559E0
1.181931325E1,-9.283694458E-1,7.761360168E-1,1.701811066E0,2.088161356E0
1.182930325E1,-9.780661011E-1,8.129594421E-1,1.822160797E0,2.222113031E0
1.183929325E1,-1.048120422E0,1.085392914E0,1.797162781E0,2.346577989E0
1.184928325E1,-1.033750305E0,1.335073700E0,1.622775421E0,2.341892727E0
1.185927325E1,-9.607022095E-1,1.614841919E0,1.186432800E0,2.222225449E0
1.186926325E1,-8.601113892E-1,1.925595703E0,1.857637024E-1,2.117125071E0
1.187925321E1,-7.357200623E-1,2.446662140E0,-2.204016724E0,3.374185732E0
1.188924321E1,-4.646337891E-1,3.029999084E0,-5.769751740E0,6.533514685E0
1.189923321E1,-3.444337463E-1,2.571053467E0,-8.375532990E0,8.768038743E0
1.190922421E1,-1.532513123E0,-2.321672058E-1,-8.153843994E0,8.299859635E0
1.191921421E1,-2.758763123E0,-3.029849396E0,-5.800288239E0,7.101697331E0
1.192920421E1,-3.867357788E0,-4.762795715E0,-4.773573303E-1,6.153742707E0
1.193919421E1,-4.372706909E0,-5.951473846E0,4.195325775E0,8.493607303E0
1.194918421E1,-5.652695160E0,-9.549990692E0,4.782255249E0,1.208409078E1
1.195917421E1,-1.008093658E1,-1.938424026E1,3.037333832E0,2.205899929E1
1.196916421E1,-1.599259323E1,-3.629038376E1,-4.132606201E0,3.987271530E1
1.197915421E1,-1.077564194E1,-5.659640717E1,-2.697869751E1,6.361696222E1
1.198914421E1,-1.168320465E1,-5.614314972E1,-1.951551727E1,6.057562171E1
1.199913421E1,-1.546314423E1,-3.862313278E1,-6.023025055E0,4.203726973E1
1.200912421E1,-1.276680130E1,-2.000290375E1,3.971241760E-1,2.373320630E1
1.201911421E1,-9.752369843E0,-8.434809723E0,3.360811157E0,1.332478083E1
1.202910421E1,-8.399483185E0,-5.561684418E0,6.603068848E0,1.204508902E1
1.203909421E1,-6.935228119E0,-8.122858429E0,7.391179962E0,1.298875511E1
1.204908421E1,-5.228177948E0,-9.380842438E0,7.256609802E0,1.296118958E1
1.205907421E1,-3.760629730E0,-1.115689911E1,6.354884949E0,1.337921135E1
1.206906421E1,-3.802991638E0,-1.392928391E1,4.347110138E0,1.507929249E1
1.207905421E1,-2.558030548E0,-1.417836594E1,1.607507172E0,1.449667756E1
1.208904421E1,-1.376238098E0,-1.233794312E1,-4.924758911E-1,1.242422650E1
1.209903421E1,-1.363065491E0,-9.881251831E0,-1.494192810E0,1.008611409E1
1.210902521E1,-1.793420563E0,-7.962841187E0,-1.384021912E0,8.278811130E0
1.211901521E1,-2.065854034E0,-6.680906982E0,-1.000369720E0,7.064206295E0
1.212900521E1,-1.775008850E0,-5.838608551E0,-1.143472137E0,6.208666101E0
1.213899521E1,-1.333876190E0,-5.011129303E0,-1.783541107E0,5.483763440E0
1.214898521E1,-9.801617432E-1,-4.068539429E0,-2.333796844E0,4.791694673E0
1.215897521E1,-1.043031006E0,-3.436104584E0,-2.378254395E0,4.307066560E0
1.216896521E1,-1.644929352E0,-2.985840912E0,-1.990261230E0,3.947426793E0
1.217895521E1,-2.708018646E0,-2.514471130E0,-2.352208557E0,4.380503984E0
1.218894521E1,-4.239334259E0,-1.843865662E0,-4.123325500E0,6.194643551E0
1.219893521E1,-6.463708649E0,-2.129920807E0,-6.497388611E0,9.409152507E0
1.220892521E1,-8.725654907E0,-4.716242523E0,-8.301437073E0,1.293421256E1
1.221891521E1,-9.226363678E0,-7.885152740E0,-7.818690948E0,1.443722094E1
1.222890521E1,-8.722361755E0,-1.044078827E1,-5.353916473E0,1.462033091E1
1.223889521E1,-8.148604889E0,-1.247775238E1,-2.944526825E0,1.519092836E1
1.224888521E1,-7.513475647E0,-1.366313736E1,-8.978329468E-1,1.561857045E1
1.225887521E1,-6.421346741E0,-1.339639206E1,1.006956024E0,1.488996221E1
1.226886521E1,-4.562512207E0,-1.192570038E1,2.423610077E0,1.299664314E1
1.227885521E1,-2.927312622E0,-1.061981598E1,3.231779480E0,1.148015894E1
1.228884521E1,-1.685345306E0,-9.824220428E0,3.701352997E0,1.063276586E1
1.229883521E1,-7.066804504E-1,-9.095535736E0,4.299958191E0,1.008552468E1
1.230882621E1,-2.918930054E-2,-8.631800079E0,4.623136139E0,9.791946302E0
1.231881621E1,-1.149609375E-1,-8.500523071E0,4.141886902E0,9.456602752E0
1.232880621E1,-4.429289246E-1,-8.562943268E0,2.950214996E0,9.067742385E0
1.233879621E1,-9.473799133E-1,-8.722810822E0,7.870632935E-1,8.809337430E0
1.234878621E1,-2.506387939E0,-8.425229645E0,-2.604733429E0,9.167939316E0
1.235877621E1,-4.310436401E0,-8.246950378E0,-5.159770203E0,1.064026696E1
1.236876621E1,-5.842201080E0,-8.345894623E0,-6.114035797E0,1.188135953E1
1.237875621E1,-6.573131104E0,-8.378526764E0,-5.484145660E0,1.197838123E1
1.238874621E1,-6.604715424E0,-8.391849060E0,-3.503763885E0,1.123929526E1
1.239873621E1,-6.136040039E0,-8.413553925E0,-1.181193695E0,1.048017631E1
1.240872621E1,-6.001918945E0,-8.224646759E0,5.152285767E-1,1.019476855E1
1.241871621E1,-5.644162903E0,-8.033943329E0,1.686093750E0,9.962114857E0
1.242870621E1,-5.256768494E0,-8.078849945E0,2.600392456E0,9.983159438E0
1.243869621E1,-4.987328796E0,-8.430917816E0,2.994822235E0,1.024318232E1
1.244868621E1,-4.287534027E0,-8.857231293E0,2.629731445E0,1.018572441E1
1.245867621E1,-3.681893463E0,-9.200168152E0,1.719474335E0,1.005763518E1
1.246866621E1,-3.336860962E0,-9.416917419E0,5.670208740E-1,1.000672211E1
1.247865621E1,-3.317551117E0,-9.424850922E0,-7.574249268E-1,1.002036191E1
1.248864621E1,-3.825145569E0,-9.210197296E0,-1.920655975E0,1.015619969E1
1.249863621E1,-4.814288635E0,-8.924591217E0,-2.530787201E0,1.045134380E1
1.250862721E1,-5.601351929E0,-8.614286499E0,-2.409090271E0,1.055389934E1
1.251861721E1,-5.953419800E0,-8.373287659E0,-1.809586945E0,1.043215023E1
1.252860721E1,-5.954617310E0,-8.200097809E0,-1.185384979E0,1.020314701E1
1.253859721E1,-5.675747223E0,-8.133486328E0,-5.282514954E-1,9.932107331E0
1.254858721E1,-5.228477325E0,-8.236621857E0,1.050814819E-1,9.756534060E0
1.255857721E1,-4.477788391E0,-8.541986847E0,5.171745300E-1,9.658343422E0
1.256856721E1,-3.644171906E0,-8.874744873E0,6.973997498E-1,9.619119079E0
1.257855721E1,-3.166814575E0,-9.065298615E0,7.473957825E-1,9.631560309E0
1.258854721E1,-3.004552002E0,-9.198671265E0,6.812333679E-1,9.700874428E0
1.259853721E1,-3.125201111E0,-9.224417725E0,5.710624695E-1,9.756171210E0
1.260852721E1,-3.483855286E0,-9.026678925E0,3.344046021E-1,9.681425850E0
1.261851721E1,-4.099824371E0,-8.760382690E0,5.388793945E-3,9.672274489E0
1.262850721E1,-4.800816650E0,-8.588989105E0,-3.406915283E-1,9.845539349E0
1.263849721E1,-5.281317444E0,-8.489895172E0,-6.409671021E-1,1.001905548E1
1.264848721E1,-5.575455780E0,-8.474177856E0,-7.934999084E-1,1.017482381E1
1.265847721E1,-5.626649323E0,-8.424780579E0,-7.737409973E-1,1.016045203E1
1.266846721E1,-5.421276398E0,-8.377778320E0,-7.189549255E-1,1.000471407E1
1.267845721E1,-5.032534790E0,-8.425079956E0,-5.203179932E-1,9.827467094E0
1.268844721E1,-4.526586914E0,-8.602760468E0,-2.779719543E-1,9.724954764E0
1.269843821E1,-4.105811920E0,-8.757239227E0,-6.900650024E-2,9.672212379E0
1.270842821E1,-3.789070587E0,-8.877139893E0,1.603166199E-1,9.653308759E0
1.271841821E1,-3.670666809E0,-8.965156860E0,4.282594299E-1,9.696970583E0
1.272840821E1,-3.745810547E0,-9.087003479E0,5.944139099E-1,9.846728227E0
1.273839821E1,-3.888314209E0,-9.174721069E0,5.586383057E-1,9.980309156E0
1.274838821E1,-4.011508026E0,-9.092392273E0,3.845503235E-1,9.945434774E0
1.275837821E1,-4.145030365E0,-8.783434753E0,1.493893433E-1,9.713512237E0
1.276836821E1,-4.374054108E0,-8.534801788E0,-4.430786133E-2,9.590472047E0
1.277835821E1,-4.583618317E0,-8.483009491E0,-2.219883728E-1,9.644702470E0
1.278834821E1,-4.755311279E0,-8.445587311E0,-4.920268250E-1,9.704793701E0
1.279833821E1,-4.959786072E0,-8.456215210E0,-7.261399841E-1,9.830276335E0
1.280832821E1,-5.104834442E0,-8.543034668E0,-8.319699097E-1,9.986738704E0
1.281831821E1,-5.072801056E0,-8.632698212E0,-8.051756287E-1,1.004515290E1
1.282830821E1,-4.796475677E0,-8.779991913E0,-5.619314575E-1,1.002048920E1
1.283829821E1,-4.383185120E0,-8.873697052E0,-3.002755737E-1,9.901766337E0
1.284828821E1,-4.014501801E0,-8.944200439E0,-4.101470947E-2,9.803908833E0
1.285827821E1,-3.801943817E0,-9.037905579E0,2.547702026E-1,9.808334308E0
1.286826821E1,-3.689976654E0,-9.025182037E0,5.218148804E-1,9.764329433E0
1.287825971E1,-3.671265564E0,-9.006021881E0,6.812333679E-1,9.749394846E0
1.288824971E1,-3.757336578E0,-9.013955383E0,6.158193970E-1,9.785101090E0
1.289823971E1,-3.986210632E0,-8.981173553E0,3.799099731E-1,9.833396422E0
1.290822971E1,-4.280947723E0,-8.927884369E0,7.559280396E-2,9.901482060E0
1.291821971E1,-4.547543335E0,-8.925788727E0,-2.264790344E-1,1.002003730E1
1.292820971E1,-4.760101318E0,-8.888665924E0,-4.596940613E-1,1.009347636E1
1.293819971E1,-4.930297394E0,-8.781788177E0,-4.796026611E-1,1.008254208E1
1.294818971E1,-5.068909149E0,-8.681945801E0,-3.035687256E-1,1.005794098E1
1.295817971E1,-5.099295959E0,-8.652756500E0,-5.987548828E-2,1.004373434E1
1.296816971E1,-5.024750977E0,-8.640931091E0,1.375639343E-1,9.996636251E0
1.297815971E1,-4.741539917E0,-8.613987122E0,2.243833923E-1,9.835310001E0
1.298814971E1,-4.429139557E0,-8.571924591E0,2.553689575E-1,9.651962584E0
1.299813971E1,-4.236939240E0,-8.618178406E0,2.435435486E-1,9.606454425E0
1.300812971E1,-4.123175812E0,-8.729397125E0,2.086660767E-1,9.656422447E0
1.301811971E1,-4.112697601E0,-8.874744873E0,2.189945984E-1,9.783830372E0
1.302810971E1,-4.122127991E0,-8.915609894E0,2.046244812E-1,9.824556485E0
1.303809971E1,-4.150419159E0,-8.824000397E0,1.820214844E-1,9.753055625E0
1.304808971E1,-4.255500641E0,-8.743916931E0,1.808239746E-1,9.726153727E0
1.305807971E1,-4.402794342E0,-8.675060120E0,1.956431580E-1,9.730341327E0
1.306807071E1,-4.526586914E0,-8.664581909E0,1.613644409E-1,9.777065369E0
1.307806071E1,-4.624333649E0,-8.685089264E0,4.535568237E-2,9.839577956E0
1.308805071E1,-4.671934662E0,-8.760382690E0,-3.038681030E-2,9.928353425E0
1.309804071E1,-4.605921936E0,-8.760083313E0,-2.948867798E-2,9.897193850E0
1.310803071E1,-4.457879791E0,-8.736582184E0,-2.829116821E-2,9.808229243E0
1.311802071E1,-4.361330566E0,-8.778794403E0,-1.496887207E-4,9.802470888E0
1.312801071E1,-4.368964691E0,-8.800050201E0,4.385879517E-2,9.825001762E0
1.313800071E1,-4.371808777E0,-8.775800629E0,1.083746338E-1,9.805056538E0
1.314799071E1,-4.331692200E0,-8.776100006E0,1.811233521E-1,9.788579790E0
1.315798071E1,-4.336182861E0,-8.784183197E0,2.234852600E-1,9.798688785E0
1.316797071E1,-4.323010254E0,-8.746611328E0,2.330653381E-1,9.759402996E0
1.317796071E1,-4.341571655E0,-8.725505219E0,2.272274780E-1,9.748605956E0
1.318795071E1,-4.424648895E0,-8.785680084E0,1.913021851E-1,9.838815422E0
1.319794071E1,-4.497846680E0,-8.861721954E0,1.440005493E-1,9.938887106E0
1.320793071E1,-4.554129639E0,-8.859925690E0,1.160087585E-1,9.962521670E0
1.321792071E1,-4.564009094E0,-8.798253937E0,1.342707825E-1,9.912491109E0
1.322791071E1,-4.580774231E0,-8.747808838E0,1.999841309E-1,9.876621167E0
1.323790171E1,-4.599185944E0,-8.743168488E0,2.628533936E-1,9.882540081E0
1.324789171E1,-4.640200653E0,-8.761879578E0,2.439926147E-1,9.917738060E0
1.325788171E1,-4.587360535E0,-8.732390900E0,1.767823792E-1,9.865585614E0
1.326787171E1,-4.437222748E0,-8.694819031E0,1.345701599E-1,9.762526969E0
1.327786171E1,-4.317322083E0,-8.697363739E0,1.784289551E-1,9.711603517E0
1.328785171E1,-4.280798035E0,-8.711883545E0,2.392025757E-1,9.709756155E0
1.329784171E1,-4.275409241E0,-8.756341095E0,2.950364685E-1,9.748829677E0
1.330783171E1,-4.307143250E0,-8.788224792E0,3.186872864E-1,9.792136619E0
1.331782171E1,-4.322860565E0,-8.813222809E0,3.043171692E-1,9.821029920E0
1.332781171E1,-4.349654846E0,-8.801397400E0,2.923420715E-1,9.821891740E0
1.333780171E1,-4.352199554E0,-8.770711212E0,2.526745605E-1,9.794430078E0
1.334779171E1,-4.378095703E0,-8.729097748E0,2.007325745E-1,9.767556657E0
1.335778171E1,-4.457730103E0,-8.716523895E0,1.893562317E-1,9.792088759E0
1.336777171E1,-4.567901001E0,-8.769813080E0,1.778302002E-1,9.889740370E0
1.337776171E1,-4.646487579E0,-8.775800629E0,1.625619507E-1,9.931311589E0
1.338775171E1,-4.671934662E0,-8.764573975E0,1.522334290E-1,9.933171974E0
1.339774171E1,-4.668940887E0,-8.694369965E0,1.612147522E-1,9.870008525E0
1.340773171E1,-4.590953064E0,-8.607251129E0,2.032772827E-1,9.757199582E0
1.341772171E1,-4.511468353E0,-8.594527588E0,2.519261169E-1,9.709928832E0
1.342771271E1,-4.459975433E0,-8.662935333E0,2.621049500E-1,9.747129242E0
1.343770271E1,-4.482578430E0,-8.754844208E0,2.353106689E-1,9.838504846E0
1.344769271E1,-4.511468353E0,-8.823102264E0,1.775308228E-1,9.911205651E0
1.345768271E1,-4.503235474E0,-8.812923431E0,6.346801758E-2,9.897008504E0
1.346767271E1,-4.475093994E0,-8.716224518E0,4.490661621E-3,9.797910811E0
1.347766271E1,-4.485871582E0,-8.629554749E0,3.367996216E-2,9.725913497E0
1.348765271E1,-4.523892517E0,-8.598269806E0,9.909393311E-2,9.716257858E0
1.349764271E1,-4.606670380E0,-8.603359222E0,1.923500061E-1,9.760952844E0
1.350763271E1,-4.676575012E0,-8.655001831E0,2.986289978E-1,9.842184200E0
1.351762271E1,-4.648433533E0,-8.690028992E0,3.700305176E-1,9.862122529E0
1.352761271E1,-4.561015320E0,-8.668623505E0,4.376898193E-1,9.805073513E0
1.353760271E1,-4.497397614E0,-8.677155762E0,5.014572144E-1,9.786269807E0
1.354759271E1,-4.419858856E0,-8.689430237E0,5.728587341E-1,9.765731784E0
1.355758271E1,-4.382736053E0,-8.683143311E0,6.092330933E-1,9.745589671E0
1.356757271E1,-4.402494965E0,-8.740174713E0,5.872288513E-1,9.803950921E0
1.357756271E1,-4.487518158E0,-8.775650940E0,4.754113770E-1,9.867922001E0
1.358755271E1,-4.571343842E0,-8.779243469E0,3.222798157E-1,9.903341087E0
1.359754271E1,-4.622088318E0,-8.725355530E0,2.082170105E-1,9.876177594E0
1.360753371E1,-4.631219330E0,-8.639883270E0,1.483415222E-1,9.803967595E0
1.361752371E1,-4.639601898E0,-8.624465332E0,1.860630798E-1,9.794995023E0
1.362751371E1,-4.629572754E0,-8.660240936E0,2.609074402E-1,9.823481544E0
1.363750371E1,-4.639601898E0,-8.701255646E0,3.809577942E-1,9.868276670E0
1.364749371E1,-4.675527191E0,-8.752449188E0,4.514611816E-1,9.933264242E0
1.365748371E1,-4.703968048E0,-8.755143585E0,4.349954224E-1,9.948320241E0
1.366747371E1,-4.709356842E0,-8.700507202E0,4.209246826E-1,9.902224247E0
1.367746371E1,-4.659809875E0,-8.653654633E0,4.134402466E-1,9.837199775E0
1.368745371E1,-4.633614349E0,-8.620274048E0,4.686753845E-1,9.797916269E0
1.369744371E1,-4.600383453E0,-8.609795837E0,5.798941040E-1,9.778976912E0
1.370743371E1,-4.612059174E0,-8.628506927E0,6.514453125E-1,9.805437400E0
1.371742371E1,-4.630470886E0,-8.624615021E0,6.215075684E-1,9.808746940E0
1.372741371E1,-4.682562561E0,-8.627758484E0,5.254074097E-1,9.830598229E0
1.373740371E1,-4.731510773E0,-8.632997589E0,4.004173279E-1,9.852724273E0
1.374739371E1,-4.736600189E0,-8.668324127E0,2.933898926E-1,9.882373306E0
1.375738371E1,-4.697381744E0,-8.694070587E0,2.011816406E-1,9.883963409E0
1.376737371E1,-4.666845245E0,-8.690927124E0,1.553768921E-1,9.865890776E0
1.377736371E1,-4.681215363E0,-8.674910431E0,1.947450256E-1,9.859298853E0
1.378735471E1,-4.705165558E0,-8.722511444E0,3.080593872E-1,9.915426839E0
1.379734471E1,-4.697980499E0,-8.740623779E0,3.909869385E-1,9.930880908E0
1.380733471E1,-4.608766022E0,-8.716972961E0,4.468208313E-1,9.870460511E0
1.381732471E1,-4.566104736E0,-8.714428253E0,5.185217285E-1,9.851874798E0
1.382731471E1,-4.549788666E0,-8.709937592E0,5.544470215E-1,9.842306704E0
1.383730471E1,-4.514162750E0,-8.718170471E0,5.421725464E-1,9.832502874E0
1.384729471E1,-4.477339325E0,-8.713081055E0,5.161267090E-1,9.809726585E0
1.385728471E1,-4.430786133E0,-8.671467590E0,4.909790039E-1,9.750244936E0
1.386727471E1,-4.392465820E0,-8.632249146E0,5.078938293E-1,9.698836911E0
1.387726487E1,-4.433929596E0,-8.668324127E0,5.486091614E-1,9.751950925E0
1.388725488E1,-4.521796875E0,-8.716673584E0,5.536985779E-1,9.835325488E0
1.389724487E1,-4.548890533E0,-8.678502960E0,4.987628174E-1,9.811094896E0
1.390723488E1,-4.519401855E0,-8.604706421E0,4.041595459E-1,9.727759797E0
1.391722487E1,-4.522844696E0,-8.563392334E0,3.820056152E-1,9.691942050E0
1.392721488E1,-4.538262634E0,-8.590635681E0,3.800596619E-1,9.723131928E0
1.393720487E1,-4.495601349E0,-8.654852142E0,3.797602844E-1,9.760180068E0
1.394719487E1,-4.490362244E0,-8.742270355E0,3.427871704E-1,9.834030053E0
1.395718488E1,-4.468807068E0,-8.776848450E0,3.091072083E-1,9.853875004E0
1.396717587E1,-4.444707184E0,-8.786578217E0,2.905458069E-1,9.851080934E0
1.397716588E1,-4.407434692E0,-8.797355804E0,3.043171692E-1,9.844366849E0
1.398715587E1,-4.407434692E0,-8.777746582E0,3.623963928E-1,9.828817160E0
1.399714588E1,-4.472549286E0,-8.747659149E0,4.293072510E-1,9.834100997E0
1.400713587E1,-4.528233490E0,-8.695717163E0,4.258644104E-1,9.813345812E0
1.401712587E1,-4.568350067E0,-8.661438446E0,3.728746033E-1,9.799457830E0
1.402711587E1,-4.542603607E0,-8.690328369E0,3.035687256E-1,9.810668105E0
1.403710587E1,-4.503534851E0,-8.743467865E0,3.004252625E-1,9.839731287E0
1.404709588E1,-4.426894226E0,-8.732690277E0,3.640429688E-1,9.797438402E0
1.405708587E1,-4.376000061E0,-8.692424011E0,4.294569397E-1,9.741254795E0
1.406707588E1,-4.337979126E0,-8.669970703E0,4.906796265E-1,9.707070690E0
1.407706587E1,-4.378993835E0,-8.700357513E0,5.474116516E-1,9.755586471E0
1.408705587E1,-4.456532593E0,-8.732091522E0,5.342390442E-1,9.818121840E0
1.409704588E1,-4.500990143E0,-8.724158020E0,4.487667847E-1,9.827066554E0
1.410703587E1,-4.544848938E0,-8.673563232E0,3.302133179E-1,9.797723810E0
1.411702588E1,-4.595144348E0,-8.666228485E0,2.751278687E-1,9.812979317E0
1.412701587E1,-4.595144348E0,-8.690627747E0,2.640509033E-1,9.834230274E0
1.413700588E1,-4.570595398E0,-8.749006348E0,2.597099304E-1,9.874355858E0
1.414699687E1,-4.515809326E0,-8.751850433E0,2.332150269E-1,9.850980110E0
1.415698687E1,-4.436923370E0,-8.722361755E0,2.387535095E-1,9.788916530E0
1.416697687E1,-4.384532318E0,-8.732241211E0,2.736309814E-1,9.775020927E0
1.417696687E1,-4.383933563E0,-8.783285065E0,3.306623840E-1,9.822133558E0
1.418695688E1,-4.427193604E0,-8.818312225E0,3.993695068E-1,9.875331372E0
1.419694687E1,-4.437971191E0,-8.793014832E0,4.204756165E-1,9.858473405E0
1.420693688E1,-4.472848663E0,-8.713081055E0,4.095483398E-1,9.802646912E0
1.421692687E1,-4.523892517E0,-8.677904205E0,3.481759644E-1,9.792489541E0
1.422691687E1,-4.602628784E0,-8.645421753E0,2.821632385E-1,9.798322566E0
1.423690687E1,-4.593946838E0,-8.635991364E0,1.972897339E-1,9.783844726E0
1.424689687E1,-4.507576447E0,-8.653205566E0,1.312770081E-1,9.757737732E0
1.425688688E1,-4.477189636E0,-8.704997864E0,1.561253357E-1,9.790127168E0
1.426687687E1,-4.486320648E0,-8.769813080E0,2.887495422E-1,9.854951583E0
1.427686688E1,-4.535717926E0,-8.773704987E0,4.101470947E-1,9.885284869E0
1.428685687E1,-4.522545319E0,-8.740025024E0,4.414320374E-1,9.850701286E0
1.429684687E1,-4.516108704E0,-8.676557007E0,4.123924255E-1,9.790196465E0
1.430683687E1,-4.533622284E0,-8.641679535E0,4.047583008E-1,9.767097086E0
1.431682687E1,-4.585863647E0,-8.649014282E0,3.829037476E-1,9.797051022E0
1.432681788E1,-4.536166992E0,-8.645721130E0,3.124003601E-1,9.768464507E0
1.433680787E1,-4.484823761E0,-8.656349030E0,2.167492676E-1,9.751564128E0
1.434679788E1,-4.503534851E0,-8.666976929E0,2.023791504E-1,9.769302563E0
1.435678787E1,-4.519850922E0,-8.666827240E0,2.106120300E-1,9.776875993E0
1.436677787E1,-4.496948547E0,-8.677754517E0,1.995350647E-1,9.775775362E0
1.437676787E1,-4.484524384E0,-8.762777710E0,1.805245972E-1,9.845294372E0
1.438675787E1,-4.471800842E0,-8.880133667E0,1.682501221E-1,9.943947145E0
1.439674788E1,-4.458478546E0,-8.894354095E0,1.927990723E-1,9.951117385E0
1.440673787E1,-4.448748779E0,-8.835227051E0,1.971400452E-1,9.894011671E0
1.441672788E1,-4.446653137E0,-8.746162262E0,2.261796570E-1,9.814236377E0
1.442671787E1,-4.467759247E0,-8.739126892E0,2.401007080E-1,9.817884694E0
1.443670787E1,-4.504432983E0,-8.724008331E0,2.504292297E-1,9.821453694E0
1.444669787E1,-4.544998627E0,-8.706345062E0,1.899549866E-1,9.823112529E0
1.445668787E1,-4.524191895E0,-8.693471832E0,1.158590698E-1,9.800927921E0
1.446667788E1,-4.478237457E0,-8.718320160E0,3.323089600E-2,9.801266318E0
1.447666787E1,-4.402944031E0,-8.728648682E0,4.385879517E-2,9.776356558E0
1.448665788E1,-4.354444885E0,-8.751850433E0,6.945556641E-2,9.775525579E0
1.449664787E1,-4.322561188E0,-8.756640472E0,1.067280579E-1,9.765996030E0
1.450663887E1,-4.285887451E0,-8.769214325E0,1.219963074E-1,9.761292651E0
1.451662887E1,-4.282294922E0,-8.789721680E0,1.627116394E-1,9.778738778E0
1.452661887E1,-4.326453094E0,-8.859925690E0,1.972897339E-1,9.861815393E0
1.453660888E1,-4.360582123E0,-8.924441528E0,1.920506287E-1,9.934647275E0
1.454659887E1,-4.409829712E0,-8.936117249E0,1.469943237E-1,9.966062256E0
1.455658888E1,-4.473297729E0,-8.820258179E0,1.326242065E-1,9.890648922E0
1.456657887E1,-4.495451660E0,-8.630901947E0,1.996847534E-1,9.733520845E0
1.457656887E1,-4.496798859E0,-8.547375641E0,2.122586060E-1,9.660428771E0
1.458655887E1,-4.511019287E0,-8.612789612E0,2.320175171E-1,9.725393156E0
1.459654887E1,-4.466412048E0,-8.675209808E0,2.439926147E-1,9.760514034E0
1.460653888E1,-4.418811035E0,-8.725355530E0,2.290237427E-1,9.783157566E0
1.461652887E1,-4.416266327E0,-8.773255920E0,1.959425354E-1,9.824043017E0
1.462651888E1,-4.360731812E0,-8.814270630E0,1.549278259E-1,9.835209774E0
1.463650887E1,-4.355193329E0,-8.832832031E0,8.607101440E-2,9.848555165E0
1.464649887E1,-4.384382629E0,-8.813073120E0,3.367996216E-2,9.843485318E0
1.465648887E1,-4.472998352E0,-8.806636505E0,4.340972900E-2,9.877572839E0
1.466647887E1,-4.536765747E0,-8.741821289E0,4.086502075E-2,9.849028015E0
1.467646888E1,-4.558171234E0,-8.633746033E0,1.010398865E-1,9.763641975E0
1.468645987E1,-4.534071350E0,-8.596922607E0,1.998344421E-1,9.721358708E0
1.469644988E1,-4.528981934E0,-8.642278290E0,3.085084534E-1,9.761958249E0
1.470643987E1,-4.510570221E0,-8.734486542E0,3.718267822E-1,9.837416024E0
1.471642987E1,-4.472998352E0,-8.793164520E0,2.881507874E-1,9.869675142E0
1.472641987E1,-4.385430450E0,-8.840915222E0,1.345701599E-1,9.869746265E0
1.473640987E1,-4.254901886E0,-8.866511993E0,-8.038284302E-2,9.834921779E0
1.474639988E1,-4.160897369E0,-8.876840515E0,-1.622625732E-1,9.804983100E0
1.475638987E1,-4.143084412E0,-8.887468414E0,-1.046324158E-1,9.806283251E0
1.476637988E1,-4.146377563E0,-8.858428802E0,3.592529297E-3,9.780808793E0
1.477636987E1,-4.227957916E0,-8.789272614E0,1.510359192E-1,9.754473490E0
1.478635987E1,-4.351900177E0,-8.762029266E0,2.183958435E-1,9.785698174E0
1.479634987E1,-4.382586365E0,-8.766519928E0,1.359173584E-1,9.801908407E0
1.480633987E1,-4.339026947E0,-8.777147827E0,-2.918930054E-2,9.791135319E0
1.481632988E1,-4.285588074E0,-8.798403625E0,-9.819580078E-2,9.787124905E0
1.482631987E1,-4.269571381E0,-8.816066895E0,-3.757186890E-2,9.795595281E0
1.483630988E1,-4.271966400E0,-8.808881836E0,1.272354126E-2,9.790110214E0
1.484629987E1,-4.297563171E0,-8.788374481E0,-5.583389282E-2,9.783030852E0
1.485629088E1,-4.376149750E0,-8.789571991E0,-1.285826111E-1,9.819561900E0
1.486628087E1,-4.457430725E0,-8.786578217E0,-1.941462708E-1,9.854457783E0
1.487627083E1,-4.492457886E0,-8.768465881E0,-1.905537415E-1,9.854160669E0
1.488626083E1,-4.500092010E0,-8.742120667E0,-1.820214844E-1,9.834054793E0
1.489625083E1,-4.478387146E0,-8.704997864E0,-1.835183716E-1,9.791149995E0
1.490624083E1,-4.442461853E0,-8.703051910E0,-1.619631958E-1,9.772656340E0
1.491623083E1,-4.428091736E0,-8.713380432E0,-1.221459961E-1,9.774759057E0
1.492622083E1,-4.368815002E0,-8.691675568E0,-1.091230774E-1,9.728498165E0
1.493621083E1,-4.284390564E0,-8.662635956E0,-1.324745178E-1,9.665133921E0
1.494620083E1,-4.245920563E0,-8.696764984E0,-1.704954529E-1,9.679392094E0
1.495619083E1,-4.228406982E0,-8.761580200E0,-2.070195007E-1,9.730753840E0
1.496618083E1,-4.235142975E0,-8.819659424E0,-2.906954956E-1,9.788121998E0
1.497617083E1,-4.239783325E0,-8.878786469E0,-3.710783386E-1,9.846131775E0
1.498616083E1,-4.260739746E0,-8.910071411E0,-3.797602844E-1,9.883698377E0
1.499615083E1,-4.252656555E0,-8.822054443E0,-3.249742126E-1,9.798945893E0
1.500614083E1,-4.196672974E0,-8.706345062E0,-2.908451843E-1,9.669389811E0
1.501613083E1,-4.179907837E0,-8.625812531E0,-2.320175171E-1,9.588018746E0
1.502612083E1,-4.210444336E0,-8.594078522E0,-1.086740112E-1,9.570675900E0
1.503611183E1,-4.302203522E0,-8.664282532E0,-2.948867798E-2,9.673655799E0
1.504610183E1,-4.409680023E0,-8.759484558E0,-6.376739502E-2,9.807033900E0
1.505609183E1,-4.451742554E0,-8.793463898E0,-1.008901978E-1,9.856632179E0
1.506608183E1,-4.447551270E0,-8.736432495E0,-2.110610962E-1,9.805636737E0
1.507607183E1,-4.403093719E0,-8.635991364E0,-3.254232788E-1,9.699148491E0
1.508606183E1,-4.359833679E0,-8.619824982E0,-3.787124634E-1,9.667106887E0
1.509605183E1,-4.358785858E0,-8.752149811E0,-4.537065125E-1,9.788002353E0
1.510604183E1,-4.398752747E0,-8.946595459E0,-6.008505249E-1,9.987573148E0
1.511603183E1,-4.388424225E0,-9.081015930E0,-6.685098267E-1,1.010791882E1
1.512602183E1,-4.364174652E0,-9.070088654E0,-5.959107971E-1,1.008303715E1
1.513601183E1,-4.226461029E0,-8.979377289E0,-4.224215698E-1,9.933309081E0
1.514600183E1,-4.042792969E0,-8.859476624E0,-2.514770508E-1,9.741547194E0
1.515599183E1,-3.941304016E0,-8.789272614E0,-9.026229858E-2,9.632929861E0
1.516598183E1,-3.951632538E0,-8.817563782E0,-8.337661743E-2,9.662907555E0
1.517597183E1,-3.997287598E0,-8.842561798E0,-2.532733154E-1,9.707386603E0
1.518596183E1,-3.991000671E0,-8.823850708E0,-5.694158936E-1,9.701168081E0
1.519595183E1,-4.033811646E0,-8.769813080E0,-1.001716919E0,9.704879939E0
1.520594183E1,-4.126169586E0,-8.567284241E0,-1.416654053E0,9.614080477E0
1.521593283E1,-4.117038574E0,-8.304131470E0,-1.723964996E0,9.427654077E0
1.522592283E1,-4.069437561E0,-8.244705048E0,-1.490749969E0,9.314387734E0
1.523591283E1,-4.070335693E0,-8.281229095E0,-8.729846191E-1,9.268683301E0
1.524590283E1,-4.161945190E0,-8.392298126E0,-4.349954224E-1,9.377722358E0
1.525589283E1,-4.282594299E0,-8.563841400E0,-6.137237549E-2,9.575163708E0
1.526588283E1,-4.461472321E0,-8.850794678E0,9.101074219E-2,9.912092849E0
1.527587283E1,-4.583019562E0,-9.044791260E0,9.580078125E-2,1.014009344E1
1.528586283E1,-4.707410889E0,-9.283095703E0,-1.990859985E-1,1.041034189E1
1.529585283E1,-4.678221588E0,-9.468260651E0,-5.944139099E-1,1.057766727E1
1.530584283E1,-4.397854614E0,-9.558522949E0,-8.499325562E-1,1.055598747E1
1.531583283E1,-4.085154877E0,-9.623936920E0,-9.439370728E-1,1.049760303E1
1.532582283E1,-3.925736389E0,-9.615105286E0,-8.878038025E-1,1.042352395E1
1.533581283E1,-3.786076813E0,-9.537267151E0,-8.131091309E-1,1.029344397E1
1.534580283E1,-3.668271790E0,-9.430688782E0,-7.776329041E-1,1.014883352E1
1.535579283E1,-3.608845367E0,-9.374405823E0,-7.042854309E-1,1.006972032E1
1.536578283E1,-3.686384125E0,-9.280700684E0,-5.345384216E-1,1.000032822E1
1.537577283E1,-3.780837708E0,-9.200467529E0,-4.070036316E-1,9.955349742E0
1.538576383E1,-3.849245453E0,-9.103020172E0,-3.957769775E-1,9.891324796E0
1.539575383E1,-3.869004364E0,-8.960366821E0,-4.568499756E-1,9.770674503E0
1.540574383E1,-3.914509735E0,-8.790769501E0,-5.346881104E-1,9.637785340E0
1.541573383E1,-3.999532928E0,-8.637937317E0,-7.369175720E-1,9.547422283E0
1.542572383E1,-4.162394257E0,-8.600515137E0,-8.988807678E-1,9.596998135E0
1.543571383E1,-4.287384338E0,-8.770860901E0,-1.003064117E0,9.814061495E0
1.544570383E1,-4.235142975E0,-8.938212891E0,-1.038240967E0,9.945151080E0
1.545569383E1,-4.107159119E0,-8.975934448E0,-1.015188904E0,9.923042062E0
1.546568383E1,-4.038751373E0,-8.965007172E0,-9.632469177E-1,9.879813301E0
1.547567383E1,-3.939657440E0,-8.892557831E0,-8.997789001E-1,9.767706363E0
1.548566383E1,-3.846551056E0,-8.831035767E0,-8.646020508E-1,9.671126328E0
1.549565383E1,-3.835174713E0,-8.781189423E0,-8.753796387E-1,9.622065385E0
1.550564383E1,-3.885021057E0,-8.767268372E0,-8.087681580E-1,9.623538291E0
1.551563383E1,-4.001179504E0,-8.774154053E0,-7.390132141E-1,9.671678101E0
1.552562383E1,-4.124073944E0,-8.809181213E0,-7.126679993E-1,9.752822936E0
1.553561383E1,-4.188140717E0,-8.898545380E0,-7.216493225E-1,9.861308751E0
1.554560483E1,-4.188589783E0,-8.953481140E0,-7.794291687E-1,9.915473701E0
1.555559483E1,-4.205953674E0,-8.916208649E0,-7.429051208E-1,9.886391202E0
1.556558483E1,-4.347259827E0,-8.856782227E0,-7.185058594E-1,9.892295491E0
1.557557483E1,-4.478836212E0,-8.873547363E0,-7.521858215E-1,9.968229539E0
1.558556483E1,-4.516408081E0,-8.925040283E0,-7.899073792E-1,1.003385468E1
1.559555483E1,-4.485123138E0,-8.924441528E0,-8.601113892E-1,1.002505749E1
1.560554483E1,-4.342320099E0,-8.875493317E0,-9.208850098E-1,9.923616007E0
1.561553483E1,-4.230203247E0,-8.820258179E0,-9.102571106E-1,9.824466492E0
1.562552483E1,-4.223167877E0,-8.775351563E0,-7.978408813E-1,9.771309638E0
1.563551483E1,-4.224215698E0,-8.709937592E0,-6.346801758E-1,9.701022113E0
1.564550483E1,-4.201612701E0,-8.677155762E0,-5.595364380E-1,9.657104247E0
1.565549483E1,-4.208947449E0,-8.737031250E0,-5.941145325E-1,9.716168266E0
1.566548483E1,-4.258195038E0,-8.829239502E0,-6.566844177E-1,9.824404796E0
1.567547483E1,-4.271517334E0,-8.919202423E0,-7.550299072E-1,9.918069488E0
1.568546483E1,-4.298910370E0,-8.925189972E0,-8.201445007E-1,9.940436781E0
1.569545483E1,-4.336332550E0,-8.936416626E0,-9.415420532E-1,9.977465787E0
1.570544483E1,-4.356091461E0,-8.954528961E0,-1.053658905E0,1.001345689E1
1.571543483E1,-4.286486206E0,-8.890761566E0,-1.026714935E0,9.923394015E0
1.572542583E1,-4.183799744E0,-8.788524170E0,-9.289682007E-1,9.777797262E0
1.573541583E1,-4.161645813E0,-8.733438721E0,-8.952882385E-1,9.715646597E0
1.574540583E1,-4.145180054E0,-8.681347046E0,-8.798703003E-1,9.660355892E0
1.575539583E1,-4.146976318E0,-8.704249420E0,-8.828640747E-1,9.681984276E0
1.576538583E1,-4.104913788E0,-8.843759308E0,-9.401948547E-1,9.795221400E0
1.577537583E1,-3.996389465E0,-8.929231567E0,-9.925859070E-1,9.832981843E0
1.578536583E1,-4.022734680E0,-8.935219116E0,-9.370513916E-1,9.843708665E0
1.579535583E1,-4.123325500E0,-8.849597168E0,-8.111631775E-1,9.796691733E0
1.580534583E1,-4.132606201E0,-8.708590393E0,-7.620652771E-1,9.669473829E0
1.581533583E1,-4.123325500E0,-8.626261597E0,-7.274871826E-1,9.588714195E0
1.582532583E1,-4.132905579E0,-8.650810547E0,-6.336323547E-1,9.608273601E0
1.583531583E1,-4.116589508E0,-8.712631989E0,-5.701643372E-1,9.653048882E0
1.584530583E1,-4.082759857E0,-8.806486816E0,-6.179150391E-1,9.726507960E0
1.585529583E1,-4.026925964E0,-8.844807129E0,-7.438032532E-1,9.746793788E0
1.586528583E1,-4.065994720E0,-8.933123474E0,-8.406518555E-1,9.850873241E0
1.587527596E1,-4.061354370E0,-9.003776550E0,-8.975335693E-1,9.918072292E0
1.588526596E1,-3.954925690E0,-8.990603943E0,-8.707392883E-1,9.860556951E0
1.589525696E1,-3.963308258E0,-8.939260712E0,-6.569837952E-1,9.800501116E0
1.590524696E1,-4.087400208E0,-8.879834290E0,-4.849914551E-1,9.787416113E0
1.591523696E1,-4.204307098E0,-8.881630554E0,-5.020559692E-1,9.839289592E0
1.592522696E1,-4.271966400E0,-8.959768066E0,-6.774911499E-1,9.949177603E0
1.593521696E1,-4.297563171E0,-8.988059235E0,-9.075627136E-1,1.000389565E1
1.594520696E1,-4.343517609E0,-8.893455963E0,-1.042731628E0,9.952235600E0
1.595519696E1,-4.384682007E0,-8.798703003E0,-9.595046997E-1,9.877411610E0
1.596518696E1,-4.323758698E0,-8.751551056E0,-8.265811157E-1,9.796314179E0
1.597517696E1,-4.203408966E0,-8.820856934E0,-7.259902954E-1,9.798123590E0
1.598516696E1,-4.147575073E0,-8.868607635E0,-6.788383484E-1,9.814041058E0
1.599515696E1,-4.158352661E0,-8.899293823E0,-7.128176880E-1,9.848727657E0
1.600514696E1,-4.225862274E0,-8.900191956E0,-7.156617737E-1,9.878436140E0
1.601513696E1,-4.235741730E0,-8.898994446E0,-7.496411133E-1,9.884107038E0
1.602512696E1,-4.240681458E0,-8.887019348E0,-8.505313110E-1,9.883617538E0
1.603511696E1,-4.265978851E0,-8.843908997E0,-8.897497559E-1,9.859257402E0
1.604510696E1,-4.275558929E0,-8.808881836E0,-8.117619324E-1,9.825261360E0
1.605509696E1,-4.273463287E0,-8.765322418E0,-6.881190491E-1,9.775831084E0
1.606508796E1,-4.241579590E0,-8.731642456E0,-6.529421997E-1,9.729281110E0
1.607507796E1,-4.156855774E0,-8.728498993E0,-6.580316162E-1,9.690157388E0
1.608506796E1,-4.083059235E0,-8.749305725E0,-7.244934082E-1,9.682283516E0
1.609505796E1,-4.016298065E0,-8.784332886E0,-8.675958252E-1,9.697828464E0
1.610504796E1,-3.914958801E0,-8.755293274E0,-1.030457153E0,9.645926844E0
1.611503796E1,-3.812122650E0,-8.664132843E0,-1.120270386E0,9.531761787E0
1.612502796E1,-3.763024750E0,-8.571625214E0,-1.087338867E0,9.424193328E0
1.613501796E1,-3.695964203E0,-8.440946960E0,-1.005758514E0,9.269373612E0
1.614500796E1,-3.582051086E0,-8.285121002E0,-9.934840393E-1,9.080822129E0
1.615499796E1,-3.399430847E0,-8.074209595E0,-1.081800385E0,8.827189968E0
1.616498796E1,-3.179089050E0,-7.806117096E0,-1.280437317E0,8.525349906E0
1.617497796E1,-2.964136047E0,-7.526348877E0,-1.690584412E0,8.263782764E0
1.618496796E1,-2.706072693E0,-7.257507935E0,-2.268831940E0,8.071050069E0
1.619495796E1,-2.429298248E0,-7.014114075E0,-2.844385071E0,7.949202014E0
1.620494796E1,-2.147434387E0,-6.873706055E0,-3.393143921E0,7.960699407E0
1.621493796E1,-1.974394226E0,-6.900500336E0,-3.726500702E0,8.087146896E0
1.622492796E1,-2.383493500E0,-7.330256653E0,-3.650758209E0,8.528876794E0
1.623491896E1,-4.098926239E0,-8.320597229E0,-2.509980469E0,9.609034109E0
1.624490896E1,-6.993756409E0,-9.906399536E0,-9.584568787E-1,1.216421062E1
1.625489896E1,-9.343120880E0,-1.109911926E1,-9.367520142E-1,1.453828946E1
1.626488896E1,-1.057071808E1,-1.153052216E1,-9.783654785E-1,1.567323262E1
1.627487896E1,-1.164937500E1,-1.309581711E1,-7.445516968E-1,1.754316736E1
1.628486896E1,-1.205503143E1,-1.563723221E1,8.297245789E-1,1.976196490E1
1.629485896E1,-1.121467896E1,-1.797432220E1,3.497776337E0,2.147276699E1
1.630484896E1,-1.100242035E1,-2.131387756E1,5.306614838E0,2.456613098E1
1.631483896E1,-1.132065857E1,-2.507839920E1,6.641389160E0,2.830532577E1
1.632482896E1,-1.111708191E1,-2.779420166E1,7.701784058E0,3.090994393E1
1.633481896E1,-9.290879517E0,-2.782698349E1,6.999294891E0,3.016043072E1
1.634480896E1,-6.205046539E0,-2.370754990E1,2.782114563E0,2.466354975E1
1.635479896E1,-4.609813843E0,-1.848206635E1,-3.959715729E0,1.945550073E1
1.636478896E1,-6.427334290E0,-1.414842819E1,-1.363260086E1,2.067211776E1
1.637477896E1,-8.959169312E0,-1.039812698E1,-1.649509827E1,2.145870514E1
1.638476896E1,-9.085955658E0,-7.540569305E0,-8.316555634E0,1.444229460E1
1.639475896E1,-6.345454559E0,-3.985462189E0,-2.871478729E0,8.024592981E0
1.640474996E1,-1.107247467E0,-1.341210938E0,-1.830992432E0,2.525346910E0
