"Time (s)","Acceleration x (m/s^2)","Acceleration y (m/s^2)","Acceleration z (m/s^2)","Absolute acceleration (m/s^2)"
1.887208316E-3,-2.327809296E0,2.385289764E0,8.358767853E0,8.998738989E0
1.187820826E-2,-2.464475098E0,2.544708252E0,8.472980347E0,9.183712406E0
2.186820831E-2,-2.598147125E0,2.577789459E0,8.861123199E0,9.587224381E0
3.185920825E-2,-2.510728912E0,2.533182220E0,9.146429901E0,9.817227295E0
4.185020830E-2,-2.337089996E0,2.377505951E0,9.255253601E0,9.837390071E0
5.184120825E-2,-2.299518127E0,2.198328552E0,9.242080994E0,9.774277116E0
6.183220830E-2,-2.260449371E0,2.073039093E0,9.236692200E0,9.732605264E0
7.182320824E-2,-2.195783844E0,2.037263489E0,9.231602783E0,9.705379908E0
8.181420830E-2,-2.158511353E0,2.086062012E0,9.266330566E0,9.740416220E0
9.180520824E-2,-2.206411743E0,2.149380341E0,9.283694458E0,9.781363474E0
1.017962083E-1,-2.244582367E0,2.230811005E0,9.202263794E0,9.731203763E0
1.117872082E-1,-2.221230927E0,2.299218750E0,9.133706360E0,9.677027723E0
1.217772083E-1,-2.231858826E0,2.355202332E0,9.123677216E0,9.683473435E0
1.317682082E-1,-2.314936066E0,2.328557739E0,9.182355194E0,9.751756613E0
1.417592083E-1,-2.398013306E0,2.301015015E0,9.255403290E0,9.834003659E0
1.517502083E-1,-2.393822021E0,2.298619995E0,9.289981384E0,9.864978047E0
1.617412083E-1,-2.388283539E0,2.301015015E0,9.373807068E0,9.943179939E0
1.717322083E-1,-2.388732605E0,2.277214508E0,9.419462128E0,9.980882534E0
1.817232083E-1,-2.354753265E0,2.239792328E0,9.400601349E0,9.946498798E0
1.917142083E-1,-2.299368439E0,2.255210266E0,9.343270569E0,9.882801905E0
2.017052083E-1,-2.210303650E0,2.303859100E0,9.256451111E0,9.791582923E0
2.116962083E-1,-2.222578125E0,2.306703186E0,9.263336792E0,9.801537718E0
2.216872083E-1,-2.300715637E0,2.250270538E0,9.348060608E0,9.886518450E0
2.316772083E-1,-2.345622253E0,2.244881744E0,9.344168701E0,9.892164906E0
2.416682083E-1,-2.285148010E0,2.303559723E0,9.263187103E0,9.815035616E0
2.516592083E-1,-2.137854309E0,2.351759491E0,9.215735779E0,9.748383440E0
2.616502083E-1,-2.106419678E0,2.341430969E0,9.191336517E0,9.715964688E0
2.716412083E-1,-2.200124817E0,2.280507660E0,9.244775391E0,9.772775267E0
2.816322083E-1,-2.308200073E0,2.232008514E0,9.261839905E0,9.802618426E0
2.916232083E-1,-2.308649139E0,2.270328827E0,9.223669281E0,9.775496347E0
3.016142083E-1,-2.192640381E0,2.318678284E0,9.187444611E0,9.725897352E0
3.116052083E-1,-2.218686218E0,2.298320618E0,9.259744263E0,9.795290195E0
3.215962083E-1,-2.307152252E0,2.248623962E0,9.340576172E0,9.880568023E0
3.315862083E-1,-2.300565948E0,2.248025208E0,9.362730103E0,9.899845251E0
3.415772083E-1,-2.181713104E0,2.310894470E0,9.320068817E0,9.847019248E0
3.515682083E-1,-2.166295166E0,2.310894470E0,9.382788391E0,9.903019034E0
3.615592082E-1,-2.288291473E0,2.273172913E0,9.400301971E0,9.938272994E0
3.715502083E-1,-2.312391357E0,2.273023224E0,9.332942047E0,9.880161720E0
3.815412082E-1,-2.232307892E0,2.295626221E0,9.220825195E0,9.760979231E0
3.915322083E-1,-2.175426178E0,2.323468323E0,9.102122040E0,9.642593517E0
4.015232082E-1,-2.194286957E0,2.296674042E0,9.083860016E0,9.623207349E0
4.115142083E-1,-2.250569916E0,2.259850616E0,9.157656555E0,9.697147175E0
4.215052082E-1,-2.245630188E0,2.262245636E0,9.191037140E0,9.728092000E0
4.314952083E-1,-2.165097656E0,2.303410034E0,9.223669281E0,9.750354899E0
4.414862082E-1,-2.181413727E0,2.297721863E0,9.325756989E0,9.849255556E0
4.514772083E-1,-2.250569916E0,2.273621979E0,9.301507416E0,9.836282939E0
4.614682082E-1,-2.247426453E0,2.275867310E0,9.188941498E0,9.729704185E0
4.714592083E-1,-2.184706879E0,2.285447388E0,9.125174103E0,9.657381442E0
4.814513333E-1,-2.196232910E0,2.282154236E0,9.232351227E0,9.760531549E0
4.914423333E-1,-2.219284973E0,2.269730072E0,9.357940063E0,9.881697355E0
5.014333333E-1,-2.211950226E0,2.260149994E0,9.382938080E0,9.901541739E0
5.114243333E-1,-2.206561432E0,2.270179138E0,9.350605316E0,9.872003163E0
5.214153333E-1,-2.194286957E0,2.293979645E0,9.300758972E0,9.827581356E0
5.314053333E-1,-2.215243378E0,2.298021240E0,9.237141266E0,9.773074419E0
5.413963333E-1,-2.243534546E0,2.285597076E0,9.216933289E0,9.757523277E0
5.513873333E-1,-2.236798553E0,2.309247894E0,9.156159668E0,9.704182267E0
5.613783333E-1,-2.193837891E0,2.314337311E0,9.098679199E0,9.641319674E0
5.713693333E-1,-2.213596802E0,2.277962952E0,9.144633636E0,9.680570766E0
5.813603332E-1,-2.307301941E0,2.256856842E0,9.252858582E0,9.799614124E0
5.913513333E-1,-2.379451904E0,2.280807037E0,9.367669830E0,9.930614792E0
6.013423332E-1,-2.324067078E0,2.364183655E0,9.455986176E0,1.002029574E1
6.113333333E-1,-2.206112366E0,2.467169495E0,9.483379211E0,1.004431871E1
6.213243332E-1,-2.174977112E0,2.477498016E0,9.443112946E0,1.000204499E1
6.313143333E-1,-2.268831940E0,2.435734863E0,9.506281586E0,1.007222876E1
6.413053332E-1,-2.404150543E0,2.415077820E0,9.551038513E0,1.014075330E1
6.512963333E-1,-2.462229767E0,2.456691284E0,9.477541351E0,1.009562765E1
6.612873332E-1,-2.424957275E0,2.530487823E0,9.306746521E0,9.944813584E0
6.712783333E-1,-2.314786377E0,2.585124207E0,9.072932739E0,9.713866976E0
6.812693332E-1,-2.303110657E0,2.547702026E0,9.033564606E0,9.664387916E0
6.912603333E-1,-2.496957550E0,2.433040466E0,9.118887177E0,9.762611651E0
7.012513332E-1,-2.530487823E0,2.360291748E0,9.245074768E0,9.871461555E0
7.112423333E-1,-2.335892487E0,2.267185364E0,9.212891693E0,9.771074482E0
7.212333333E-1,-2.116299133E0,2.261946259E0,9.099577332E0,9.612358218E0
7.312233333E-1,-1.975891113E0,2.247276764E0,9.382189636E0,9.847836357E0
7.412143333E-1,-1.782193909E0,2.215692444E0,9.697583771E0,1.010587152E1
7.512053333E-1,-2.034868469E0,2.108964386E0,9.840087433E0,1.026721682E1
7.611963333E-1,-2.265838165E0,2.125280457E0,1.002315674E1,1.049354614E1
7.711873333E-1,-2.708467712E0,2.332000580E0,1.006177643E1,1.067770429E1
7.811783333E-1,-3.170856171E0,2.664309540E0,9.952653351E0,1.077998993E1
7.911693333E-1,-3.333418121E0,2.944227448E0,9.660910034E0,1.063547527E1
8.011603333E-1,-3.358715515E0,3.091371460E0,9.973310394E0,1.096833933E1
8.111513333E-1,-3.068768463E0,2.697690125E0,9.714498596E0,1.053880234E1
8.211423333E-1,-1.398092651E0,2.026635590E0,9.355694733E0,9.674240994E0
8.311323333E-1,-1.385668488E0,1.338516541E0,9.428892517E0,9.623706032E0
8.411233333E-1,-2.514620819E0,1.335522766E0,9.304052124E0,9.729970444E0
8.511143333E-1,-2.410437469E0,1.915416870E0,8.891510010E0,9.409462303E0
8.611053333E-1,-1.694925385E0,2.411335602E0,8.613088989E0,9.103439646E0
8.710963333E-1,-9.190887451E-1,2.665656738E0,9.312883759E0,9.730377889E0
8.810873333E-1,-8.975335693E-1,2.847827911E0,9.984537048E0,1.042145241E1
8.910783333E-1,-9.288185120E-1,2.774630127E0,9.731862488E0,1.016220565E1
9.010693333E-1,-1.175804901E0,2.640958099E0,9.227561188E0,9.669801566E0
9.110603333E-1,-1.569486237E0,2.509681091E0,8.688232727E0,9.178625940E0
9.210513333E-1,-1.519041138E0,2.380499725E0,8.471034393E0,8.929316246E0
9.310423332E-1,-1.149459686E0,2.235301666E0,8.409512329E0,8.777113918E0
9.410323333E-1,-7.509883118E-1,2.217339020E0,8.622519379E0,8.934674936E0
9.510233332E-1,-4.968168640E-1,2.220332794E0,8.945996704E0,9.230794210E0
9.610143333E-1,-3.647914124E-1,2.144141235E0,9.121880951E0,9.377586390E0
9.710053332E-1,-2.143542480E-1,2.045346680E0,9.280251617E0,9.505391147E0
9.809963333E-1,-3.068618774E-2,1.931283875E0,9.388626251E0,9.585254401E0
9.909873332E-1,1.648072815E-1,1.814227295E0,9.682914276E0,9.852786966E0
1.000978333E0,3.601510620E-1,1.720971222E0,9.810748444E0,9.967057528E0
1.010969333E0,4.363426208E-1,1.560055847E0,9.680668945E0,9.815269755E0
1.020960333E0,4.122427368E-1,1.422342224E0,9.417516174E0,9.533237245E0
1.030951333E0,-6.885681152E-3,1.301842804E0,8.982820129E0,9.076667867E0
1.040941333E0,2.574645996E-2,1.439406738E0,8.873098297E0,8.989128324E0
1.050932333E0,6.396199036E-1,1.931583252E0,8.766519928E0,8.999555496E0
1.060923333E0,8.789721680E-1,2.383643188E0,9.271120605E0,9.612909248E0
1.070914333E0,6.848258972E-1,2.361339569E0,9.321715393E0,9.640502525E0
1.080905333E0,3.538641357E-1,2.173480225E0,9.108858032E0,9.371260895E0
1.090896333E0,5.987548828E-2,2.117346954E0,9.050928497E0,9.295485456E0
1.100887333E0,-3.682342529E-2,2.150577850E0,9.132059784E0,9.381943133E0
1.110878333E0,-5.209167480E-2,2.166295166E0,9.242080994E0,9.492713489E0
1.120869333E0,-5.463638306E-2,2.211351471E0,9.416019287E0,9.672356470E0
1.130859333E0,-1.499880981E-1,2.380649414E0,9.567653961E0,9.860526882E0
1.140850333E0,-2.630030823E-1,2.471660156E0,9.487121429E0,9.807331317E0
1.150841333E0,-3.719764709E-1,2.439327393E0,9.386680298E0,9.705588681E0
1.160832333E0,-4.920268250E-1,2.123184814E0,8.713829498E0,8.982250758E0
1.170823333E0,-5.363346863E-1,1.936672668E0,8.484207001E0,8.718952021E0
1.180814333E0,-8.508306885E-1,2.083068237E0,9.163644104E0,9.435860290E0
1.190805333E0,-1.568438416E0,2.405946808E0,9.971364441E0,1.037673783E1
1.200796333E0,-2.117197266E0,2.631827087E0,1.003513184E1,1.058833835E1
1.210787333E0,-1.917811890E0,2.799628143E0,9.612111511E0,1.019355718E1
1.220778333E0,-1.366358643E0,2.875819702E0,9.540709991E0,1.005795317E1
1.230768333E0,-9.512718201E-1,2.753074951E0,9.855954437E0,1.027736239E1
1.240759333E0,-6.336323547E-1,2.533182220E0,1.021296204E1,1.054149400E1
1.250750333E0,-2.540217590E-1,2.439477081E0,1.043510010E1,1.071946312E1
1.260741333E0,1.531315613E-1,2.424208832E0,1.033316208E1,1.061482342E1
1.270732333E0,1.266366577E-1,2.315085754E0,9.954000549E0,1.022045918E1
1.280723333E0,-1.483415222E-1,2.177372131E0,9.593550110E0,9.838656327E0
1.290714333E0,-6.956034851E-1,2.162702637E0,9.519753571E0,9.787075914E0
1.300705333E0,-1.316661987E0,2.200873260E0,9.627080383E0,9.962836875E0
1.310696333E0,-1.669178925E0,2.282752991E0,9.970615997E0,1.036389419E1
1.320687333E0,-1.175056458E0,2.745590515E0,9.736353149E0,1.018408551E1
1.330677333E0,-1.592388611E0,2.744991760E0,1.022568558E1,1.070678882E1
1.340668333E0,-1.544188843E0,1.914668427E0,1.038570282E1,1.067301726E1
1.350659333E0,-1.430874481E0,1.494492188E0,9.865085449E0,1.007972319E1
1.360650333E0,-1.276395721E0,1.357077942E0,1.010758118E1,1.027784237E1
1.370641333E0,-9.575587463E-1,1.140478363E0,1.041474243E1,1.052066868E1
1.380632333E0,-3.956272888E-1,1.022074585E0,1.021460861E1,1.027323642E1
1.390623333E0,-6.227050781E-2,9.397457886E-1,9.718689880E0,9.764216956E0
1.400614333E0,8.412506104E-2,9.244775391E-1,9.381441193E0,9.427257003E0
1.410605333E0,2.514770508E-2,1.009949799E0,9.368567963E0,9.422881548E0
1.420596333E0,-1.484013977E0,1.817370758E0,9.791139221E0,1.006834352E1
1.430586333E0,-3.171454926E0,3.389102325E0,1.028571075E1,1.128450206E1
1.440577333E0,-2.415227509E0,3.481160889E0,1.043824356E1,1.126537765E1
1.450568333E0,-1.630708923E0,2.925666046E0,1.042851379E1,1.095320197E1
1.460559333E0,-8.424481201E-1,1.914069672E0,1.057685532E1,1.078161629E1
1.470550333E0,-4.834945679E-1,1.451082458E0,1.103385498E1,1.113936098E1
1.480540458E0,-4.117936707E-1,2.245630188E0,1.164548309E1,1.186716923E1
1.490531458E0,-6.265969849E-1,1.207538910E0,1.096859070E1,1.105263570E1
1.500522458E0,-1.465452576E0,4.305047607E-1,9.072034607E0,9.199711817E0
1.510513458E0,-2.479893036E0,9.178912354E-1,8.604257355E0,9.001424244E0
1.520504458E0,-2.179168396E0,1.622326355E0,9.430688782E0,9.814204430E0
1.530494458E0,-1.123563538E0,2.151326294E0,9.428593140E0,9.735962635E0
1.540485458E0,-6.975494385E-1,2.117945709E0,9.053173828E0,9.323745257E0
1.550476458E0,-7.074288940E-1,1.673819275E0,8.536298676E0,8.727572497E0
1.560467458E0,-8.062234497E-1,1.513053589E0,8.405919800E0,8.578975177E0
1.570458458E0,-7.741900635E-1,1.827250214E0,8.377928009E0,8.609755590E0
1.580449458E0,-4.914280701E-1,2.131567383E0,8.201744385E0,8.488444617E0
1.590440458E0,-1.513352966E-1,2.136507111E0,7.979905701E0,8.262351965E0
1.600431458E0,-3.861968994E-2,1.949396210E0,7.835007019E0,8.073968792E0
1.610422458E0,-3.086581421E-1,2.311942291E0,7.988587646E0,8.322131914E0
1.620412458E0,-4.758604431E-1,2.704875183E0,8.780141602E0,9.199656486E0
1.630403458E0,-7.821235657E-1,1.932631073E0,8.819210358E0,9.062298355E0
1.640394458E0,-1.062939606E0,1.686842194E0,8.629854126E0,8.857181235E0
1.650385458E0,-1.908531189E0,1.020278320E0,8.767567749E0,9.030708908E0
1.660376458E0,-1.370100861E0,2.076481934E0,9.085057526E0,9.419512930E0
1.670367458E0,-6.047424316E-1,3.350482635E0,9.567055206E0,1.015480146E1
1.680358458E0,-1.279988251E0,2.724035339E0,1.007464966E1,1.051462335E1
1.690349458E0,-1.194665680E0,1.397194519E0,1.042312500E1,1.058399326E1
1.700340458E0,-7.072792053E-1,8.821156311E-1,1.046443909E1,1.052534357E1
1.710331458E0,-1.085392914E0,1.332978058E0,1.101035385E1,1.114373367E1
1.720321458E0,-2.115550690E0,1.442699890E0,1.181972076E1,1.209391321E1
1.730312458E0,-1.903591461E0,6.188131714E-1,1.186028641E1,1.202800831E1
1.740303458E0,-1.139280853E0,3.183879089E-1,1.156345367E1,1.162380285E1
1.750294458E0,-8.708889771E-1,9.117539978E-1,1.142304565E1,1.149241989E1
1.760285458E0,-9.830058289E-1,1.231788483E0,1.107247467E1,1.118406450E1
1.770276458E0,-3.848497009E-1,9.379495239E-1,9.971963196E0,1.002336813E1
1.780267458E0,-6.433621216E-1,1.187330933E0,1.012659164E1,1.021623844E1
1.790258458E0,-1.181642761E0,1.611698456E0,1.012419662E1,1.031955468E1
1.800249458E0,-8.535250854E-1,2.085313568E0,9.481882324E0,9.745928902E0
1.810240458E0,-5.917195129E-1,1.974244537E0,8.995393982E0,9.228482344E0
1.820230458E0,-9.398954773E-1,1.701661377E0,8.668174438E0,8.883484848E0
1.830221458E0,-1.440304871E0,1.821711731E0,8.741222534E0,9.044450406E0
1.840212458E0,-1.498982849E0,1.795516205E0,8.762628021E0,9.069425443E0
1.850203458E0,-9.120533752E-1,1.145268402E0,8.089477844E0,8.220896111E0
1.860194458E0,-1.062191162E0,6.658154297E-1,7.852819977E0,7.952253884E0
1.870185458E0,-1.583706665E0,-1.462458801E-1,7.469167786E0,7.636621116E0
1.880176458E0,-9.189390564E-1,1.374292145E0,8.205037537E0,8.369932429E0
1.890167458E0,-1.238374786E0,2.540367279E0,1.048329987E1,1.085756023E1
1.900158458E0,9.895921326E-1,2.177521820E0,1.161644348E1,1.186012871E1
1.910149458E0,2.591411133E0,1.311123505E0,1.193363388E1,1.228194097E1
1.920139458E0,3.120710449E0,1.137035522E0,1.211011688E1,1.255733309E1
1.930130458E0,2.768043823E0,2.012864227E0,1.179277679E1,1.227938409E1
1.940121458E0,3.163820801E0,1.813778229E0,1.080303497E1,1.140197869E1
1.950112458E0,2.758613434E0,1.929487610E0,9.685458984E0,1.025382788E1
1.960103458E0,2.141297150E0,2.287093964E0,8.927135925E0,9.460957040E0
1.970094458E0,1.768721924E0,2.453398132E0,8.585845642E0,9.102982205E0
1.980085458E0,1.420695648E0,2.634671173E0,8.326285400E0,8.847988296E0
1.990076458E0,1.343755646E0,2.525099030E0,8.429720306E0,8.901796942E0
2.000067458E0,1.400487671E0,2.399360504E0,8.754395142E0,9.184646473E0
2.010057458E0,1.316661987E0,2.605032806E0,8.913963318E0,9.379687454E0
2.020048458E0,1.299597473E0,2.745440826E0,8.935518494E0,9.437684550E0
2.030039458E0,1.084045715E0,2.659369812E0,8.951684875E0,9.401067228E0
2.040030458E0,8.196954346E-1,2.618654480E0,8.664432220E0,9.088544306E0
2.050021458E0,5.578898621E-1,2.663710785E0,8.662635956E0,9.080080283E0
2.060012458E0,3.171903992E-1,2.670446777E0,8.886270905E0,9.284271987E0
2.070003458E0,2.314187622E-1,2.636916504E0,8.862919464E0,9.249768901E0
2.079994458E0,-5.275030518E-1,1.842069397E0,8.842861176E0,9.048075646E0
2.089985458E0,-1.793869629E0,7.719447327E-1,9.675729218E0,9.870846104E0
2.099976458E0,-1.071022797E0,1.022673340E0,9.550140381E0,9.664270893E0
2.109966458E0,-9.822573853E-1,1.570983124E0,9.975555725E0,1.014615837E1
2.119957458E0,-9.964778137E-1,2.823578339E0,1.039618103E1,1.081878656E1
2.129948458E0,-6.001020813E-1,3.525319061E0,9.843380585E0,1.047282857E1
2.139939458E0,-3.408412170E-1,3.511697388E0,9.388626251E0,1.002968066E1
2.149930458E0,-9.879455566E-3,2.944377136E0,9.181756439E0,9.642308107E0
2.159921458E0,-2.520758057E-1,2.853216705E0,9.058562622E0,9.500628640E0
2.169912458E0,-6.809339905E-1,3.011737061E0,8.771609344E0,9.299212962E0
2.179903458E0,-1.072669373E0,3.203039246E0,8.631949768E0,9.269338530E0
2.189894458E0,-9.713301086E-1,3.052153015E0,8.837322693E0,9.399861307E0
2.199884458E0,-6.715036011E-1,2.799478455E0,9.281000061E0,9.717250580E0
2.209875458E0,-6.923103333E-1,2.655328217E0,9.286538544E0,9.683483860E0
2.219866458E0,-7.942483521E-1,2.562072144E0,9.117390289E0,9.503780816E0
2.229857458E0,-7.801776123E-1,2.534529419E0,9.292526093E0,9.663516837E0
2.239848458E0,-8.437953186E-1,2.505040741E0,9.478439484E0,9.840123714E0
2.249839458E0,-9.114546204E-1,2.481838989E0,9.543554077E0,9.903014628E0
2.259830458E0,-1.024918671E0,2.308050385E0,9.439071350E0,9.771060475E0
2.269821458E0,-8.955876160E-1,2.032473450E0,9.409133606E0,9.667720554E0
2.279812458E0,-7.520361328E-1,2.116897888E0,9.455686798E0,9.718890258E0
2.289803458E0,-6.569837952E-1,2.243833923E0,9.293124847E0,9.582723403E0
2.299793458E0,-7.580236816E-1,2.295177155E0,9.082363129E0,9.398497650E0
2.309784458E0,-1.137634277E0,2.251468048E0,9.119785309E0,9.462230403E0
2.319775458E0,-1.478176117E0,1.960473175E0,9.276958466E0,9.596375257E0
2.329766458E0,-1.802701263E0,1.648372192E0,9.530531158E0,9.838591713E0
2.339757458E0,-1.974992981E0,1.487007751E0,9.660760345E0,9.972064971E0
2.349748458E0,-1.741328888E0,1.736239471E0,9.577084351E0,9.887734748E0
2.359739458E0,-1.344204712E0,2.050735474E0,9.338929596E0,9.655465203E0
2.369730458E0,-9.169931030E-1,2.401007080E0,9.089997253E0,9.446362338E0
2.379721458E0,-5.522016907E-1,2.716251526E0,9.012009430E0,9.428640571E0
2.389711458E0,-3.993695068E-1,2.923271027E0,8.977581024E0,9.449971986E0
2.399702458E0,-4.068539429E-1,3.035836945E0,8.781039734E0,9.299919080E0
2.409693458E0,-2.418969727E-1,3.166964264E0,8.621920624E0,9.188345446E0
2.419684458E0,1.517843628E-1,3.371139679E0,8.506660309E0,9.151551280E0
2.429675458E0,5.683680725E-1,3.556154938E0,8.387208710E0,9.127680436E0
2.439666458E0,8.288264465E-1,3.698209534E0,8.463849335E0,9.273642898E0
2.449657458E0,8.249345398E-1,3.585942993E0,8.634494476E0,9.385840346E0
2.459648458E0,7.482939148E-1,3.369642792E0,8.733887787E0,9.391231666E0
2.469639458E0,9.300160217E-1,3.251388702E0,8.881331177E0,9.503394223E0
2.479630458E0,1.381776581E0,3.211122437E0,9.027876434E0,9.681072603E0
2.489620458E0,1.995051270E0,3.299588470E0,9.163943481E0,9.942101074E0
2.499611458E0,2.516117706E0,3.508853302E0,9.159153442E0,1.012585757E1
2.509602458E0,2.799179077E0,3.563040619E0,8.996441803E0,1.007306443E1
2.519593458E0,2.845881958E0,3.417543182E0,8.825048218E0,9.882313574E0
2.529584458E0,2.927312622E0,3.179238739E0,8.658145294E0,9.676786558E0
2.539575458E0,3.099005585E0,3.089724884E0,8.481213226E0,9.543647796E0
2.549566458E0,3.526815948E0,3.253933411E0,8.423583069E0,9.694496639E0
2.559557458E0,3.961062927E0,3.334915009E0,8.473130035E0,9.930035761E0
2.569548458E0,4.279001770E0,3.331771545E0,8.528814240E0,1.010698917E1
2.579538458E0,4.357738037E0,3.422482910E0,8.874146118E0,1.046201412E1
2.589529458E0,4.128265228E0,3.109932861E0,9.431586914E0,1.075495643E1
2.599520458E0,4.114194489E0,2.645897827E0,9.848470001E0,1.099635089E1
2.609511458E0,4.409081268E0,2.592908020E0,1.004665787E1,1.127379723E1
2.619502458E0,4.985382843E0,2.857258301E0,1.020278320E1,1.170960085E1
2.629493458E0,5.858966217E0,2.959196320E0,1.025203079E1,1.217326839E1
2.639484458E0,6.585405579E0,3.144510956E0,1.003019211E1,1.240404247E1
2.649475458E0,7.014114075E0,3.173999634E0,9.306147766E0,1.207793261E1
2.659466458E0,7.444918213E0,2.724634094E0,8.064180450E0,1.130846782E1
2.669457458E0,7.348967743E0,2.919528809E0,6.970854034E0,1.054152652E1
2.679447458E0,7.112459564E0,3.203638000E0,6.043532410E0,9.867860025E0
2.689438458E0,7.420968018E0,2.957250366E0,5.323529663E0,9.599795004E0
2.699429458E0,8.112679596E0,2.844983826E0,5.192701721E0,1.004358772E1
2.709420458E0,8.387059021E0,3.044967957E0,5.925877075E0,1.071123746E1
2.719411458E0,9.199719086E0,2.423460388E0,6.330934753E0,1.142754245E1
2.729402458E0,1.008018814E1,2.386038208E0,6.270610199E0,1.210883659E1
2.739393458E0,1.042686722E1,2.833308105E0,5.685776367E0,1.220963749E1
2.749384458E0,1.023781036E1,2.728226624E0,5.282664642E0,1.183902561E1
2.759375458E0,1.050575317E1,1.750010834E0,4.403093719E0,1.152478295E1
2.769365458E0,1.049317932E1,1.571132813E0,3.361260223E0,1.112984011E1
2.779356458E0,1.056308395E1,2.232158203E0,2.366878052E0,1.105275461E1
2.789347458E0,1.091036179E1,2.340383148E0,1.689087524E0,1.128567252E1
2.799338458E0,1.109058701E1,1.948498077E0,1.063388672E0,1.131055084E1
2.809329458E0,1.081605789E1,1.576671295E0,3.243754578E-1,1.093518267E1
2.819320458E0,1.024918671E1,1.449286194E0,-4.451742554E-1,1.036071613E1
2.829311458E0,9.544452209E0,1.477876740E0,-1.158890076E0,9.727472120E0
2.839302458E0,9.004075928E0,1.584006042E0,-1.502425690E0,9.264973902E0
2.849293458E0,8.919801178E0,1.462159424E0,-1.821861420E0,9.220625915E0
2.859284458E0,8.875193939E0,1.316212921E0,-2.508333893E0,9.316288039E0
2.869274458E0,8.565487976E0,1.242715759E0,-3.436553650E0,9.312455515E0
2.879265458E0,8.142018585E0,8.385562134E-1,-4.620890808E0,9.399376310E0
2.889256458E0,7.983797607E0,2.805166626E-1,-5.662275238E0,9.791888209E0
2.899247458E0,6.834038544E0,-2.206411743E-1,-6.406377869E0,9.369868875E0
2.909238458E0,5.967340851E0,-8.831634521E-1,-6.655609589E0,8.982553841E0
2.919229458E0,5.272336121E0,-1.365310822E0,-6.584806824E0,8.545249131E0
2.929220458E0,5.304219818E0,-1.816472626E0,-6.122118988E0,8.301485505E0
2.939211458E0,5.740263062E0,-1.536105652E0,-6.134393463E0,8.540551724E0
2.949202458E0,6.093528442E0,-1.480122070E0,-6.636299744E0,9.130297066E0
2.959192458E0,6.645430756E0,-1.604064331E0,-6.784491577E0,9.631412060E0
2.969183458E0,5.276377716E0,-1.842967529E0,-7.488777008E0,9.344435360E0
2.979174458E0,5.075645142E0,-2.275418243E0,-7.694748688E0,9.494675305E0
2.989165458E0,5.976322174E0,-2.088157654E0,-7.454797668E0,9.780124610E0
2.999156458E0,6.250551910E0,-2.033221893E0,-6.839876404E0,9.486163591E0
3.009147458E0,6.674620056E0,-2.258054352E0,-5.472619629E0,8.921823129E0
3.019138458E0,7.194788361E0,-2.156266022E0,-3.836671600E0,8.434127796E0
3.029129458E0,8.535250854E0,-1.590143280E0,-3.178340607E0,9.245588776E0
3.039120458E0,7.602839813E0,-1.653461609E0,-4.058809662E0,8.775593677E0
3.049110458E0,6.735992432E0,-2.498454437E0,-3.834875336E0,8.143840461E0
3.059101458E0,6.122268677E0,-3.127745819E0,-3.195704498E0,7.581391356E0
3.069092458E0,6.048921204E0,-4.335284729E0,-3.442840576E0,8.199834916E0
3.079083458E0,5.447471924E0,-4.786446533E0,-3.905528412E0,8.236393200E0
3.089074458E0,5.227728882E0,-5.196593628E0,-4.242777100E0,8.504992188E0
3.099065458E0,4.894821167E0,-6.039939880E0,-4.632117462E0,9.049677353E0
3.109056458E0,3.715573425E0,-6.466852112E0,-5.124892731E0,9.049319732E0
3.119047458E0,2.284998322E0,-6.917864227E0,-5.796396332E0,9.310009304E0
3.129038458E0,7.412585449E-1,-7.271578674E0,-6.148913269E0,9.551672892E0
3.139028458E0,-4.073030090E-1,-7.502398682E0,-6.460265808E0,9.908931125E0
3.149019458E0,-1.730401611E-1,-7.736511841E0,-6.833439789E0,1.032373274E1
3.159010458E0,9.583071899E-1,-7.329807587E0,-7.190148010E0,1.031225777E1
3.169001458E0,1.544188843E0,-6.938371582E0,-7.724836121E0,1.049755269E1
3.178992458E0,1.480122070E0,-6.794221344E0,-7.764353943E0,1.042292652E1
3.188983458E0,1.691632233E0,-6.986721039E0,-7.743846588E0,1.056612751E1
3.198974458E0,1.738784180E0,-6.589297485E0,-6.628066864E0,9.506496838E0
3.208965458E0,2.096390533E0,-6.020779724E0,-4.639452209E0,7.884742136E0
3.218956458E0,3.089275818E0,-6.743776245E0,-3.073408813E0,8.029195779E0
3.228946458E0,2.798131256E0,-6.416556702E0,-3.655997314E0,7.897344794E0
3.238937458E0,2.968327332E0,-6.013894043E0,-6.374643860E0,9.252781909E0
3.248928458E0,3.182681580E0,-5.498066711E0,-6.489754486E0,9.081580969E0
3.258919458E0,2.007475433E0,-5.892047424E0,-4.349654846E0,7.593792053E0
3.268910458E0,2.139051819E0,-6.828350372E0,-5.525459747E0,9.040609322E0
3.278901458E0,2.185155945E0,-8.228388977E0,-5.608986053E0,1.019519574E1
3.288892458E0,1.693727875E0,-8.587192841E0,-2.129022675E0,9.007848386E0
3.298883458E0,1.009351044E0,-9.744436340E0,-3.484753418E-1,9.802768190E0
3.308874458E0,1.056952057E0,-1.019799316E1,-1.542691956E0,1.036803312E1
3.318864458E0,2.201472015E0,-1.047850983E1,-9.515711975E-1,1.074947138E1
3.328855458E0,1.919757843E0,-1.115450409E1,2.734812927E-1,1.132180302E1
3.338846458E0,1.478924561E0,-1.041474243E1,-1.412911835E0,1.061368916E1
3.348837458E0,2.531835022E0,-1.000474503E1,-4.106260986E0,1.110704690E1
3.358828458E0,3.308719482E0,-9.527387695E0,-3.636537781E0,1.072115423E1
3.368819458E0,2.692451019E0,-9.205107880E0,-2.761158142E0,9.980345578E0
3.378810458E0,5.251080322E-1,-8.140222321E0,1.541793823E-1,8.158598480E0
3.388801458E0,-2.698139191E0,-7.840246124E0,-2.186952209E-1,8.294410285E0
3.398792458E0,-1.620230713E0,-8.597072296E0,-1.516496429E0,8.878882872E0
3.408782458E0,-1.356479187E0,-8.236921234E0,3.026705933E-1,8.353353619E0
3.418773458E0,-1.454824677E0,-8.061186676E0,-7.981402588E-1,8.230204939E0
3.428764458E0,-3.462749176E0,-6.557713165E0,6.682104492E-1,7.445853814E0
3.438755458E0,-8.056246948E-1,-8.364306335E0,2.683918762E-1,8.407299556E0
3.448746458E0,-1.588347015E0,-7.634124756E0,9.716294861E-1,7.857911357E0
3.458737458E0,9.386979675E-1,-8.881630554E0,1.039288788E0,8.991364544E0
3.468728458E0,2.313738556E0,-9.777966614E0,-8.554710388E-1,1.008433676E1
3.478719458E0,4.364923096E0,-9.659413147E0,-2.330653381E0,1.085305308E1
3.488710750E0,3.988605652E0,-9.064101105E0,-2.309547272E0,1.016862392E1
3.498700750E0,5.105433197E0,-1.076666061E1,-1.892065430E0,1.206508767E1
3.508691750E0,2.827470245E0,-1.002689896E1,-2.242636414E0,1.065658054E1
3.518682750E0,2.926863556E0,-1.171793243E1,-1.772913208E0,1.220736221E1
3.528673750E0,3.398832092E0,-1.249960693E1,-1.788331146E0,1.307632828E1
3.538664750E0,3.290457458E0,-1.029334488E1,-1.975741425E0,1.098560937E1
3.548655750E0,2.931204529E0,-1.032073792E1,-7.017407227E-1,1.075183850E1
3.558646750E0,1.835034027E0,-1.160476776E1,-4.363426208E-1,1.175705659E1
3.568637750E0,1.661395111E0,-1.142005188E1,-4.082011414E-1,1.154748660E1
3.578627750E0,2.243085480E0,-1.199560501E1,8.442443848E-1,1.223269065E1
3.588618750E0,4.072281647E0,-1.283251465E1,-3.198847961E-1,1.346696834E1
3.598609750E0,3.178041229E0,-1.350551514E1,-1.872156830E0,1.400013773E1
3.608600750E0,2.863245850E0,-1.502994507E1,-2.114203491E0,1.544562339E1
3.618591750E0,3.137774963E0,-1.687336166E1,-3.075654144E0,1.743604353E1
3.628582750E0,3.177592163E0,-1.611039825E1,-1.628164215E0,1.650130124E1
3.638573750E0,3.303031311E0,-1.419004166E1,-2.267784119E-1,1.457116078E1
3.648564750E0,2.487377472E0,-1.287772064E1,7.207511902E-1,1.313553265E1
3.658555750E0,1.795216827E0,-1.148247208E1,1.498683472E0,1.171819187E1
3.668545750E0,1.077908478E0,-1.092338470E1,1.644480286E0,1.109894299E1
3.678536750E0,8.482859802E-1,-1.046743286E1,1.872605896E0,1.066739859E1
3.688527750E0,7.366181946E-1,-9.908345490E0,2.312840424E0,1.020133067E1
3.698518750E0,6.474037170E-1,-9.718839569E0,2.700833588E0,1.010789178E1
3.708509750E0,8.225395203E-1,-1.017853363E1,2.566862183E0,1.052938268E1
3.718500750E0,9.333091736E-1,-1.077175003E1,1.737137604E0,1.095076763E1
3.728491750E0,1.146465912E0,-1.063643143E1,1.085991669E0,1.075301983E1
3.738482750E0,1.854493561E0,-9.760003967E0,7.587721252E-1,9.963561559E0
3.748473750E0,1.463207245E0,-9.586215363E0,7.063810730E-1,9.722935495E0
3.758463750E0,1.534908142E0,-9.641001434E0,9.144483948E-1,9.805155151E0
3.768454750E0,1.760938110E0,-9.912836151E0,1.351689148E0,1.015836046E1
3.778445750E0,1.463656311E0,-1.015667908E1,1.637444916E0,1.039142173E1
3.788436750E0,1.293310547E0,-1.033959869E1,1.300794983E0,1.050104856E1
3.798427750E0,8.864566040E-1,-1.038375687E1,9.312135315E-1,1.046304786E1
3.808418750E0,5.656736755E-1,-1.014934433E1,7.134164429E-1,1.019010010E1
3.818409750E0,4.493655396E-1,-1.003438339E1,-1.032852173E-1,1.004497124E1
3.828400750E0,-1.017883301E-2,-9.863139496E0,-5.840853882E-1,9.880424083E0
3.838391750E0,-3.278182983E-1,-9.306447144E0,-4.890330505E-1,9.325051024E0
3.848381750E0,-1.171164551E0,-9.435628510E0,-3.326083374E-1,9.513849908E0
3.858372750E0,-1.422342224E0,-9.050479431E0,2.032772827E-1,9.163817817E0
3.868363750E0,-1.497186584E0,-8.745264130E0,3.746708679E-1,8.880404868E0
3.878354750E0,-2.053729248E0,-9.006171570E0,1.093925171E0,9.301913913E0
3.888345750E0,-2.379302216E0,-9.469158783E0,1.856738892E0,9.938487128E0
3.898336750E0,-2.514770508E0,-9.735005951E0,2.473306732E0,1.035430624E1
3.908327750E0,-1.904190216E0,-9.460027771E0,2.386487274E0,9.940492308E0
3.918318750E0,-1.012344818E0,-8.972491608E0,3.576063538E-1,9.036499875E0
3.928309750E0,-5.533992004E-1,-8.593479767E0,-1.690734100E0,8.775689544E0
3.938299750E0,-5.848338318E-1,-8.428822174E0,-1.814077606E0,8.641640551E0
3.948290750E0,-1.093476105E0,-9.008716278E0,-1.007854156E0,9.130631357E0
3.958281750E0,-1.503174133E0,-9.814939728E0,-3.091072083E-1,9.934189529E0
3.968272750E0,-1.063089294E0,-1.023421783E1,-1.017883301E-1,1.028978787E1
3.978263750E0,-4.462220764E-1,-1.024873764E1,-1.445993042E-1,1.025946618E1
3.988254750E0,-3.832031250E-2,-1.070543793E1,1.172062683E-1,1.070614809E1
3.998245750E0,-8.846603394E-2,-1.059915894E1,6.378236389E-1,1.061870121E1
4.008236750E0,5.276527405E-1,-1.052641022E1,3.338058472E-1,1.054491137E1
4.018227750E0,-9.445358276E-2,-1.080243622E1,-4.032614136E-1,1.081037324E1
4.028217750E0,-1.047821045E-1,-1.108968887E1,-7.752378845E-1,1.111724662E1
4.038208750E0,8.083190918E-2,-1.105076981E1,-1.328038330E0,1.113057649E1
4.048199750E0,4.794529724E-1,-1.049826874E1,-2.437082062E0,1.078809022E1
4.058190750E0,1.537303162E-1,-1.072579559E1,-3.243904266E0,1.120666048E1
4.068181750E0,-4.748126221E-1,-1.103699844E1,-3.003204803E0,1.144814486E1
4.078172750E0,-6.833290100E-1,-1.209290268E1,-2.458188171E0,1.235912306E1
4.088163750E0,-6.935078430E-1,-1.220217545E1,-2.513572998E0,1.247766356E1
4.098154750E0,-6.435118103E-1,-1.113624207E1,-2.921774139E0,1.153112132E1
4.108144750E0,-9.452842712E-1,-1.030517029E1,-3.426973572E0,1.090111209E1
4.118135750E0,-1.789977722E0,-1.008797195E1,-3.724704437E0,1.090158803E1
4.128126750E0,-2.135159912E0,-1.087249054E1,-2.901566162E0,1.145377862E1
4.138117750E0,-1.710792389E0,-1.144924118E1,-1.618434448E0,1.168893769E1
4.148108750E0,-2.194436646E-1,-1.130539032E1,-6.879693604E-1,1.132842918E1
4.158099750E0,3.817062378E-1,-1.239527390E1,-1.606159973E0,1.250472968E1
4.168090750E0,6.643185425E-1,-1.333397186E1,-3.490740967E0,1.379932597E1
4.178081750E0,2.103126526E-1,-1.385309235E1,-3.135679321E0,1.420510063E1
4.188072750E0,9.999206543E-2,-1.334385132E1,-1.627266083E0,1.344307857E1
4.198062750E0,1.251397705E-1,-1.189261917E1,-1.150058441E0,1.194875245E1
4.208053750E0,5.876779175E-1,-1.152992340E1,-2.147883453E0,1.174299375E1
4.218044750E0,3.278182983E-1,-1.096469879E1,-2.563119965E0,1.126506406E1
4.228035750E0,-4.427792358E-1,-1.009395950E1,-2.754571838E0,1.047242751E1
4.238026750E0,-7.967930603E-1,-9.304201813E0,-3.537743225E0,9.985923977E0
4.248017750E0,-5.041516113E-1,-8.356223145E0,-2.760858765E0,8.814929110E0
4.258008750E0,-7.957452393E-1,-7.453899536E0,-1.390308838E0,7.624092565E0
4.267999750E0,-1.278491364E0,-6.719975739E0,-9.719288635E-1,6.909215571E0
4.277989750E0,-1.736688538E0,-5.756429443E0,-4.653822327E-1,6.030683845E0
4.287980750E0,-2.138153687E0,-5.440735931E0,-9.175918579E-2,5.846514210E0
4.297971750E0,-2.179916840E0,-5.589676208E0,-1.348695374E-1,6.001225486E0
4.307962750E0,-1.870510254E0,-5.694458313E0,-1.712438965E-1,5.996247873E0
4.317953750E0,-1.411414948E0,-5.949228516E0,-1.342707825E-1,6.115835244E0
4.327944750E0,-9.027726746E-1,-6.393804016E0,-1.368154907E-1,6.458672215E0
4.337935750E0,-3.541635132E-1,-6.749165039E0,-3.239263916E-1,6.766209339E0
4.347926750E0,1.272354126E-1,-7.111860809E0,-8.339158630E-1,7.161715485E0
4.357917750E0,6.562353516E-1,-7.399861908E0,-1.444645844E0,7.568064661E0
4.367907750E0,1.190474396E0,-7.441325684E0,-1.790426788E0,7.745720451E0
4.377898750E0,1.535357208E0,-7.374265137E0,-1.888472900E0,7.765528827E0
4.387889750E0,1.815424805E0,-7.443121948E0,-1.777403870E0,7.864794725E0
4.397880750E0,1.869911499E0,-7.785909119E0,-1.809287567E0,8.209169953E0
4.407871750E0,2.013912048E0,-8.375083923E0,-2.113155670E0,8.869233301E0
4.417862750E0,2.205214233E0,-9.280850372E0,-2.694097595E0,9.912381919E0
4.427853750E0,2.236050110E0,-1.014395554E1,-3.224444733E0,1.087643314E1
4.437844750E0,2.387684784E0,-1.065873505E1,-3.619024200E0,1.150682439E1
4.447835750E0,2.623444519E0,-1.087129303E1,-4.057612152E0,1.189670919E1
4.457825750E0,2.588567047E0,-1.093311447E1,-4.302951965E0,1.203117064E1
4.467816750E0,2.595303040E0,-1.077624069E1,-4.511168976E0,1.196718876E1
4.477807750E0,2.584076385E0,-1.056652679E1,-4.871769104E0,1.191902150E1
4.487798375E0,2.406545563E0,-1.034229309E1,-5.208718414E0,1.182730888E1
4.497789375E0,2.209106140E0,-1.015413437E1,-5.633834381E0,1.182060424E1
4.507780375E0,2.009571075E0,-1.013452515E1,-6.115382996E0,1.200603536E1
4.517771375E0,1.666035461E0,-1.006866211E1,-6.443800049E0,1.206963918E1
4.527762375E0,1.278042297E0,-1.005653732E1,-6.846313019E0,1.223271585E1
4.537752375E0,9.208850098E-1,-1.013706985E1,-7.231312408E0,1.248599590E1
4.547743375E0,7.872129822E-1,-1.004905289E1,-7.289241943E0,1.243930128E1
4.557734375E0,7.247927856E-1,-9.900262299E0,-7.189249878E0,1.225666480E1
4.567725375E0,7.878117371E-1,-9.999505920E0,-7.097939758E0,1.228786046E1
4.577716375E0,1.191821594E0,-1.018018021E1,-7.315736847E0,1.259271668E1
4.587707375E0,1.282083893E0,-9.825567627E0,-7.815547485E0,1.262015455E1
4.597698375E0,1.239422607E0,-9.096433868E0,-7.905660095E0,1.211531011E1
4.607689375E0,1.209933929E0,-8.616831207E0,-7.541168060E0,1.151446637E1
4.617680375E0,1.120120697E0,-8.383765869E0,-6.997498627E0,1.097757658E1
4.627670375E0,8.533753967E-1,-8.052055664E0,-6.329138489E0,1.027724885E1
4.637661375E0,8.641529846E-1,-8.148904266E0,-5.809718628E0,1.004510984E1
4.647652375E0,8.234376526E-1,-8.361611938E0,-5.526357880E0,1.005660157E1
4.657643375E0,9.238787842E-1,-8.639434204E0,-5.563031616E0,1.031701004E1
4.667634375E0,9.304650879E-1,-8.925639038E0,-5.599256287E0,1.057754548E1
4.677625375E0,8.910969543E-1,-9.146130524E0,-5.245092773E0,1.058096194E1
4.687616375E0,7.444020081E-1,-9.044791260E0,-4.484374695E0,1.012284543E1
4.697607375E0,6.581813049E-1,-8.711135101E0,-3.747906189E0,9.505991699E0
4.707597375E0,5.194198608E-1,-8.323890381E0,-3.287164307E0,8.964507641E0
4.717588375E0,2.659968567E-1,-7.701484680E0,-2.980003052E0,8.262205444E0
4.727579375E0,1.743873596E-1,-7.368726654E0,-2.583178253E0,7.810336314E0
4.737570375E0,7.619155884E-2,-7.441475372E0,-2.277813263E0,7.782659837E0
4.747561375E0,8.666976929E-2,-7.563172302E0,-1.758992157E0,7.765509663E0
4.757552375E0,2.439926147E-1,-7.506589966E0,-1.249002686E0,7.613700350E0
4.767543375E0,3.203338623E-1,-7.350614319E0,-8.122109985E-1,7.402285549E0
4.777534375E0,2.486329651E-1,-7.198231201E0,-5.096900940E-1,7.220535629E0
4.787525375E0,1.992356873E-1,-6.982380066E0,-5.845344543E-1,7.009636708E0
4.797515375E0,2.007325745E-1,-6.809788971E0,-9.973759460E-1,6.885366960E0
4.807506375E0,1.645079041E-1,-6.881639557E0,-1.691781921E0,7.088452011E0
4.817497375E0,1.773811340E-1,-7.508236542E0,-2.433190155E0,7.894649730E0
4.827488375E0,3.007246399E-1,-7.996072083E0,-2.989732819E0,8.542020041E0
4.837479375E0,3.652404785E-1,-7.800728302E0,-3.276835785E0,8.468908750E0
4.847470375E0,3.707789612E-1,-7.601791992E0,-3.658242645E0,8.444374327E0
4.857461375E0,4.670288086E-1,-7.772137756E0,-4.206103363E0,8.849607150E0
4.867452375E0,4.984634399E-1,-8.486452332E0,-4.764292603E0,9.745092251E0
4.877442375E0,3.763174438E-1,-9.085207214E0,-5.123695221E0,1.043718629E1
4.887433375E0,4.041595459E-3,-9.435628510E0,-5.388195190E0,1.086571439E1
4.897424375E0,-3.297642517E-1,-9.531429291E0,-5.372627563E0,1.094632430E1
4.907415375E0,-5.610333252E-1,-9.276958466E0,-5.029241638E0,1.056740215E1
4.917406375E0,-6.640191650E-1,-9.150920563E0,-4.819378052E0,1.036371909E1
4.927397375E0,-7.140151978E-1,-9.343420258E0,-4.790488129E0,1.052416725E1
4.937388375E0,-7.966433716E-1,-9.878707123E0,-4.725373535E0,1.097964709E1
4.947379375E0,-9.448352051E-1,-1.048943710E1,-4.355043640E0,1.139681576E1
4.957370375E0,-1.163680115E0,-1.102966370E1,-3.726201324E0,1.170009440E1
4.967360375E0,-1.193468170E0,-1.117126923E1,-3.400778046E0,1.173826707E1
4.977351375E0,-9.755213928E-1,-1.067400330E1,-3.559597778E0,1.129410132E1
4.987342375E0,-8.268804932E-1,-9.642348633E0,-4.026626587E0,1.048200077E1
4.997333375E0,-4.671784973E-1,-8.743916931E0,-4.281995544E0,9.747298338E0
5.007324375E0,8.981323242E-4,-8.398734741E0,-4.554578705E0,9.554210236E0
5.017315375E0,4.188290405E-1,-8.363258514E0,-4.871769104E0,9.687809089E0
5.027306375E0,8.428971863E-1,-8.353229370E0,-5.090763702E0,9.818492331E0
5.037297375E0,1.152752838E0,-8.421786804E0,-5.230423279E0,9.980614197E0
5.047287375E0,1.314716034E0,-8.445886688E0,-5.428162079E0,1.012553326E1
5.057278375E0,1.363065491E0,-8.388705597E0,-5.620063019E0,1.018888794E1
5.067269375E0,1.385219421E0,-8.375682678E0,-5.901777191E0,1.033933592E1
5.077260375E0,1.304986267E0,-8.271499329E0,-5.888754272E0,1.023709515E1
5.087251375E0,1.149010620E0,-8.178093567E0,-5.785019989E0,1.008304994E1
5.097242375E0,9.747729492E-1,-8.131540375E0,-5.750142517E0,1.000681119E1
5.107233375E0,8.038284302E-1,-8.113727417E0,-5.561684418E0,9.869703456E0
5.117224375E0,7.062313843E-1,-8.141719208E0,-5.440286865E0,9.817488253E0
5.127214375E0,5.632786560E-1,-8.209228821E0,-5.359754333E0,9.820167371E0
5.137205375E0,4.463717651E-1,-8.230185242E0,-5.229824524E0,9.761468200E0
5.147196375E0,3.592529297E-1,-8.299341431E0,-5.175936584E0,9.787668281E0
5.157187375E0,3.097059631E-1,-8.364006958E0,-5.159770203E0,9.832383166E0
5.167178375E0,3.097059631E-1,-8.300688629E0,-5.104385376E0,9.749466630E0
5.177169375E0,3.447331238E-1,-8.231233063E0,-5.083279266E0,9.680483808E0
5.187160375E0,4.041595459E-1,-8.182584229E0,-5.099146271E0,9.649835350E0
5.197151375E0,3.754193115E-1,-8.235574036E0,-5.025200043E0,9.654960115E0
5.207142375E0,4.420307922E-1,-8.350684662E0,-4.936284943E0,9.710624829E0
5.217132375E0,4.974156189E-1,-8.477171631E0,-4.868475952E0,9.788356310E0
5.227123375E0,5.980064392E-1,-8.576714630E0,-4.842430115E0,9.867460411E0
5.237114375E0,6.224057007E-1,-8.620274048E0,-4.802762604E0,9.887519514E0
5.247105375E0,6.319857788E-1,-8.572972412E0,-4.723876648E0,9.808683530E0
5.257096375E0,6.183641052E-1,-8.582851868E0,-4.593946838E0,9.754592144E0
5.267087375E0,6.789880371E-1,-8.577163696E0,-4.455784149E0,9.689312370E0
5.277078375E0,6.855743408E-1,-8.606951752E0,-4.330195312E0,9.659204008E0
5.287069375E0,7.102729797E-1,-8.636440430E0,-4.249213715E0,9.651342300E0
5.297060375E0,7.363188171E-1,-8.684041443E0,-4.149221649E0,9.652501307E0
5.307050375E0,7.502398682E-1,-8.724906464E0,-4.080364838E0,9.661067739E0
5.317041375E0,7.451504517E-1,-8.841064911E0,-4.001029816E0,9.732826801E0
5.327032375E0,7.557783508E-1,-8.936865692E0,-3.965403900E0,9.806283567E0
5.337023375E0,7.541317749E-1,-8.989256744E0,-3.957320709E0,9.850677070E0
5.347014375E0,7.238946533E-1,-9.091494141E0,-3.927532654E0,9.929995062E0
5.357005375E0,6.921606445E-1,-9.182504883E0,-3.924389191E0,1.000991073E1
5.366996375E0,6.409671021E-1,-9.165290680E0,-3.888314209E0,9.976591575E0
5.376987375E0,5.626799011E-1,-9.115444336E0,-3.852837982E0,9.912229549E0
5.386977375E0,5.004093933E-1,-9.038204956E0,-3.848796387E0,9.836299712E0
5.396968375E0,4.107458496E-1,-8.951984253E0,-3.866160278E0,9.759811961E0
5.406959375E0,2.823129272E-1,-8.847651215E0,-3.920646973E0,9.681534242E0
5.416950375E0,1.330732727E-1,-8.725355530E0,-4.013753357E0,9.605194096E0
5.426941375E0,2.215393066E-2,-8.701405334E0,-4.133654022E0,9.633381606E0
5.436932375E0,-8.756790161E-2,-8.669371948E0,-4.288132782E0,9.672319312E0
5.446923375E0,-1.971400452E-1,-8.624016266E0,-4.447251892E0,9.705182643E0
5.456914375E0,-2.634521484E-1,-8.560099182E0,-4.573738861E0,9.708954229E0
5.466904375E0,-3.070115662E-1,-8.519383850E0,-4.721481628E0,9.745078043E0
5.476895375E0,-3.164419556E-1,-8.564889221E0,-4.847220154E0,9.846471759E0
5.486886333E0,-2.836601257E-1,-8.675359497E0,-4.998106384E0,1.001615659E1
5.496877333E0,-2.912942505E-1,-8.746012573E0,-5.120551758E0,1.013891703E1
5.506868333E0,-2.471360779E-1,-8.653355255E0,-5.162165222E0,1.007916580E1
5.516859333E0,-2.095642090E-1,-8.531209259E0,-5.152285767E0,9.968525327E0
5.526850333E0,-1.752854919E-1,-8.482410736E0,-5.223836975E0,9.963457715E0
5.536841333E0,-9.819580078E-2,-8.478518829E0,-5.256319427E0,9.976162483E0
5.546831333E0,2.799179077E-2,-8.462801514E0,-5.290747833E0,9.980571408E0
5.556822333E0,1.127156067E-1,-8.376281433E0,-5.236859894E0,9.879245771E0
5.566813333E0,2.195933533E-1,-8.306825867E0,-5.263803864E0,9.836625861E0
5.576804333E0,3.379971313E-1,-8.374185791E0,-5.222639465E0,9.875079377E0
5.586795333E0,4.590953064E-1,-8.429869995E0,-5.161566467E0,9.895213238E0
5.596786333E0,5.704637146E-1,-8.461903381E0,-5.244344330E0,9.971578869E0
5.606777333E0,6.620732117E-1,-8.509953461E0,-5.298381958E0,1.004641728E1
5.616768333E0,7.053332520E-1,-8.461903381E0,-5.215155029E0,9.964895675E0
5.626759333E0,7.694000244E-1,-8.457412720E0,-5.175936584E0,9.945356999E0
5.636749333E0,7.750881958E-1,-8.474626923E0,-5.217550049E0,9.982128616E0
5.646740333E0,7.538323975E-1,-8.472231903E0,-5.244344330E0,9.992503398E0
5.656731333E0,7.568261719E-1,-8.480913849E0,-5.191204834E0,9.972326368E0
5.666722333E0,7.135661316E-1,-8.465645599E0,-5.111271057E0,9.914707452E0
5.676713333E0,7.288343811E-1,-8.478069763E0,-5.084327087E0,9.912580310E0
5.686704333E0,7.255412292E-1,-8.534652100E0,-5.069507904E0,9.953220932E0
5.696695333E0,7.334747314E-1,-8.586743774E0,-5.072651367E0,1.000009729E1
5.706686333E0,7.355703735E-1,-8.646918640E0,-5.113965454E0,1.007287985E1
5.716676333E0,6.557862854E-1,-8.645721130E0,-5.105582886E0,1.006208359E1
5.726667333E0,5.252577209E-1,-8.656199341E0,-5.077740784E0,1.004933501E1
5.736658333E0,3.929328918E-1,-8.662336578E0,-5.020859070E0,1.001995494E1
5.746649333E0,2.719844055E-1,-8.638985138E0,-4.927303619E0,9.949088435E0
5.756640333E0,1.797761536E-1,-8.681945801E0,-4.878804474E0,9.960483695E0
5.766631333E0,1.073268127E-1,-8.732390900E0,-4.863236847E0,9.995861268E0
5.776622333E0,7.409591675E-2,-8.735833740E0,-4.848267975E0,9.991295396E0
5.786613333E0,2.679428101E-2,-8.688232727E0,-4.793481903E0,9.922881366E0
5.796603333E0,2.140548706E-2,-8.600365448E0,-4.758903809E0,9.829237483E0
5.806594333E0,4.954696655E-2,-8.522377625E0,-4.747826843E0,9.755779570E0
5.816585333E0,1.098715210E-1,-8.488847351E0,-4.735402679E0,9.720938208E0
5.826576333E0,1.898052979E-1,-8.457562408E0,-4.713398438E0,9.684137172E0
5.836567333E0,2.493814087E-1,-8.401279449E0,-4.669090576E0,9.614785192E0
5.846558333E0,3.005749512E-1,-8.310867462E0,-4.648134155E0,9.527119943E0
5.856549333E0,3.841012573E-1,-8.296796722E0,-4.673431549E0,9.530232530E0
5.866540333E0,4.432283020E-1,-8.254285126E0,-4.682712250E0,9.500393059E0
5.876531333E0,4.752616882E-1,-8.166866913E0,-4.614454193E0,9.392378631E0
5.886521333E0,5.776487732E-1,-8.134983215E0,-4.566404114E0,9.346853832E0
5.896512333E0,6.677613831E-1,-8.151448975E0,-4.537514191E0,9.353131063E0
5.906503333E0,7.226971436E-1,-8.242310028E0,-4.568350067E0,9.451337900E0
5.916494333E0,7.467970276E-1,-8.413404236E0,-4.642146606E0,9.638080813E0
5.926485333E0,7.125183105E-1,-8.597221985E0,-4.763993225E0,9.854721693E0
5.936476333E0,6.721023560E-1,-8.671467590E0,-4.891677704E0,9.978706455E0
5.946467333E0,6.239025879E-1,-8.639733582E0,-4.967270508E0,9.985390683E0
5.956458333E0,5.760021973E-1,-8.497229919E0,-4.968767395E0,9.860189869E0
5.966448333E0,5.489085388E-1,-8.433911591E0,-4.996160431E0,9.818033630E0
5.976439333E0,5.164260864E-1,-8.481811981E0,-5.030289459E0,9.874798349E0
5.986430333E0,4.857398987E-1,-8.631949768E0,-5.106930084E0,1.004127656E1
5.996421333E0,4.384382629E-1,-8.715027008E0,-5.152285767E0,1.013360609E1
6.006412333E0,3.826043701E-1,-8.705446930E0,-5.093607788E0,1.009336577E1
6.016403333E0,3.433859253E-1,-8.653205566E0,-5.012775879E0,1.000618821E1
6.026394333E0,3.086581421E-1,-8.596473541E0,-4.953499146E0,9.926317594E0
6.036385333E0,3.171903992E-1,-8.442892914E0,-4.787793732E0,9.711128633E0
6.046375333E0,3.646417236E-1,-8.272996216E0,-4.645290070E0,9.494953913E0
6.056366333E0,4.029620361E-1,-8.225544891E0,-4.578828278E0,9.422719117E0
6.066357333E0,4.691244507E-1,-8.262368317E0,-4.531975708E0,9.435338455E0
6.076348333E0,5.140310669E-1,-8.328680420E0,-4.508025513E0,9.484378709E0
6.086339333E0,5.836363220E-1,-8.437803497E0,-4.491709442E0,9.576670242E0
6.096330333E0,5.709127808E-1,-8.549471283E0,-4.476590881E0,9.667433296E0
6.106321333E0,5.957611084E-1,-8.762178955E0,-4.611011353E0,9.919281074E0
6.116312333E0,6.463558960E-1,-8.857380981E0,-4.581522675E0,9.993063785E0
6.126302333E0,6.840774536E-1,-8.866811371E0,-4.453688507E0,9.946036757E0
6.136293333E0,6.896159363E-1,-8.747359772E0,-4.349804535E0,9.793501550E0
6.146284333E0,6.825805664E-1,-8.598569183E0,-4.267625427E0,9.623613408E0
6.156275333E0,6.800358582E-1,-8.472680969E0,-4.248016205E0,9.502337252E0
6.166266333E0,6.768923950E-1,-8.380472717E0,-4.285588074E0,9.436989531E0
6.176257333E0,6.261479187E-1,-8.325387268E0,-4.364024963E0,9.420660713E0
6.186248333E0,6.150709534E-1,-8.282276917E0,-4.517904968E0,9.454411061E0
6.196239333E0,5.926176453E-1,-8.334967346E0,-4.703668671E0,9.588919402E0
6.206229333E0,6.098318481E-1,-8.484207001E0,-4.911586304E0,9.822288091E0
6.216220333E0,6.526428223E-1,-8.600515137E0,-5.041216736E0,9.990428892E0
6.226211333E0,6.370751953E-1,-8.688232727E0,-5.160518646E0,1.012532495E1
6.236202333E0,6.077362061E-1,-8.724158020E0,-5.259762268E0,1.020516416E1
6.246193333E0,5.719606018E-1,-8.617429962E0,-5.320236511E0,1.014357701E1
6.256184333E0,5.312452698E-1,-8.471034393E0,-5.293442230E0,1.000305833E1
6.266175333E0,5.222639465E-1,-8.432863770E0,-5.270390167E0,9.958060228E0
6.276166333E0,5.565426636E-1,-8.505462799E0,-5.278473358E0,1.002571285E1
6.286156333E0,5.562432861E-1,-8.532855835E0,-5.260660400E0,1.003960075E1
6.296147333E0,5.551954651E-1,-8.569828949E0,-5.214406586E0,1.004690232E1
6.306138333E0,5.533992004E-1,-8.585097198E0,-5.148693237E0,1.002592572E1
6.316129333E0,5.495072937E-1,-8.556207275E0,-5.084476776E0,9.968076309E0
6.326120333E0,5.471122742E-1,-8.500373383E0,-4.975503387E0,9.864649687E0
6.336111333E0,5.568420410E-1,-8.433911591E0,-4.812043304E0,9.726083412E0
6.346102333E0,5.448669434E-1,-8.381071472E0,-4.683460693E0,9.616342500E0
6.356093333E0,5.249583435E-1,-8.380023651E0,-4.613855438E0,9.580607479E0
6.366083333E0,5.333409119E-1,-8.390801239E0,-4.629572754E0,9.598069694E0
6.376074333E0,5.516029358E-1,-8.411158905E0,-4.654121704E0,9.628743883E0
6.386065333E0,5.831872559E-1,-8.395591278E0,-4.643194427E0,9.611727981E0
6.396056333E0,5.971083069E-1,-8.378826141E0,-4.601281586E0,9.577737628E0
6.406047333E0,6.068380737E-1,-8.367150421E0,-4.540208588E0,9.538917792E0
6.416038333E0,6.251000977E-1,-8.398135986E0,-4.504432983E0,9.550358877E0
6.426029333E0,6.327342224E-1,-8.510851593E0,-4.493954773E0,9.645235971E0
6.436020333E0,6.051914978E-1,-8.617729340E0,-4.552782440E0,9.765210887E0
6.446010333E0,5.881269836E-1,-8.700507202E0,-4.629872131E0,9.873218061E0
6.456001333E0,5.640270996E-1,-8.745114441E0,-4.691543884E0,9.940107503E0
6.465992333E0,5.236111450E-1,-8.701854401E0,-4.695735168E0,9.901836568E0
6.475983333E0,4.619393921E-1,-8.568781128E0,-4.669988708E0,9.769656727E0
6.485974583E0,4.258644104E-1,-8.496481476E0,-4.645140381E0,9.692723411E0
6.495965583E0,4.364923096E-1,-8.514743500E0,-4.667893066E0,9.720113584E0
6.505956583E0,4.547543335E-1,-8.583300934E0,-4.708309021E0,9.800409699E0
6.515947583E0,4.644841003E-1,-8.630602570E0,-4.799319763E0,9.886178047E0
6.525937583E0,4.959187317E-1,-8.662186890E0,-4.857698364E0,9.943673893E0
6.535928583E0,5.382806396E-1,-8.657845917E0,-4.888833618E0,9.957345837E0
6.545919583E0,5.266049194E-1,-8.636889496E0,-4.884792023E0,9.936516795E0
6.555910583E0,5.141807556E-1,-8.603808289E0,-4.866529999E0,9.898131801E0
6.565901583E0,4.893324280E-1,-8.566386108E0,-4.857398987E0,9.859855075E0
6.575892583E0,4.571493530E-1,-8.537795563E0,-4.847519531E0,9.828600318E0
6.585883583E0,4.357438660E-1,-8.474626923E0,-4.813240814E0,9.755842420E0
6.595874583E0,4.176315308E-1,-8.439749451E0,-4.794529724E0,9.715518625E0
6.605864583E0,4.126918030E-1,-8.445737000E0,-4.813390503E0,9.729826110E0
6.615855583E0,4.191284180E-1,-8.452323303E0,-4.807103577E0,9.732711988E0
6.625846583E0,4.361929321E-1,-8.496182098E0,-4.847818909E0,9.791665982E0
6.635837583E0,4.534071350E-1,-8.518934784E0,-4.811893616E0,9.794495804E0
6.645828583E0,4.595443726E-1,-8.558901672E0,-4.792583771E0,9.820124137E0
6.655819583E0,4.722679138E-1,-8.591533813E0,-4.815336456E0,9.860271570E0
6.665810583E0,4.825964355E-1,-8.718020782E0,-4.881199493E0,1.000314421E1
6.675801583E0,4.836442566E-1,-8.802744598E0,-4.914580078E0,1.009333055E1
6.685791583E0,4.996609497E-1,-8.783135376E0,-4.881349182E0,1.006084976E1
6.695782583E0,5.084925842E-1,-8.743617554E0,-4.827461243E0,1.000068971E1
6.705773583E0,5.149291992E-1,-8.632099457E0,-4.731810150E0,9.857399272E0
6.715764583E0,5.152285767E-1,-8.586294708E0,-4.665947113E0,9.785753919E0
6.725755583E0,5.218148804E-1,-8.601113892E0,-4.621040497E0,9.777804775E0
6.735746583E0,5.816903687E-1,-8.607999573E0,-4.614454193E0,9.784130407E0
6.745737583E0,6.194119263E-1,-8.650960236E0,-4.631818085E0,9.832422026E0
6.755728583E0,6.204597473E-1,-8.654852142E0,-4.648732910E0,9.843889149E0
6.765718583E0,6.403683472E-1,-8.710536346E0,-4.760251007E0,9.947034971E0
6.775709583E0,6.646179199E-1,-8.833131409E0,-4.894821167E0,1.012053367E1
6.785700583E0,6.845265198E-1,-8.893905029E0,-4.996759186E0,1.022436920E1
6.795691583E0,6.936575317E-1,-8.903485107E0,-5.064418488E0,1.026652533E1
6.805682583E0,6.872209167E-1,-8.832682343E0,-5.066663818E0,1.020586264E1
6.815673583E0,6.764433289E-1,-8.727151794E0,-5.020260315E0,1.009077637E1
6.825664583E0,6.307882690E-1,-8.680448914E0,-5.002746735E0,1.003870321E1
6.835655583E0,6.123765564E-1,-8.734935608E0,-5.059029694E0,1.011275860E1
6.845645583E0,5.980064392E-1,-8.894653473E0,-5.154680786E0,1.029772820E1
6.855636583E0,5.589376831E-1,-8.964258728E0,-5.178331604E0,1.036751967E1
6.865627583E0,4.665797424E-1,-8.862769775E0,-5.091661835E0,1.023188179E1
6.875618583E0,4.004173279E-1,-8.741521912E0,-4.963378601E0,1.006030151E1
6.885609583E0,3.483256531E-1,-8.541986847E0,-4.810546417E0,9.809598712E0
6.895600583E0,2.965333557E-1,-8.224197693E0,-4.607418823E0,9.431525218E0
6.905591583E0,2.851570129E-1,-7.867190094E0,-4.382736053E0,9.010125960E0
6.915582583E0,3.023712158E-1,-7.785010986E0,-4.329895935E0,8.913238649E0
6.925572583E0,3.806584167E-1,-7.945926361E0,-4.407434692E0,9.094400867E0
6.935563583E0,4.833448792E-1,-8.174501038E0,-4.502337341E0,9.344898663E0
6.945554583E0,5.668711853E-1,-8.373736725E0,-4.642146606E0,9.591159200E0
6.955545583E0,6.679110718E-1,-8.459658051E0,-4.754712524E0,9.727240653E0
6.965536583E0,7.556286621E-1,-8.396639099E0,-4.744982758E0,9.674160646E0
6.975527583E0,8.250842285E-1,-8.325686646E0,-4.770280151E0,9.630856391E0
6.985518583E0,8.533753967E-1,-8.350235596E0,-4.805606689E0,9.672049407E0
6.995509583E0,8.316705322E-1,-8.423732758E0,-4.841831360E0,9.751629626E0
7.005499583E0,7.599696350E-1,-8.537645874E0,-4.903952179E0,9.875104956E0
7.015490583E0,6.523434448E-1,-8.600814514E0,-4.966522064E0,9.953185605E0
7.025481583E0,5.812413025E-1,-8.582103424E0,-4.978497162E0,9.938600235E0
7.035472583E0,5.307962036E-1,-8.543334045E0,-5.007237396E0,9.916790185E0
7.045463583E0,4.882846069E-1,-8.538693695E0,-5.029091949E0,9.921667083E0
7.055454583E0,4.748126221E-1,-8.502469025E0,-4.935686188E0,9.842683815E0
7.065445583E0,4.454736328E-1,-8.534203033E0,-4.886887665E0,9.844426810E0
7.075436583E0,4.019142151E-1,-8.507558441E0,-4.813091125E0,9.782940859E0
7.085426583E0,3.897894287E-1,-8.459059296E0,-4.716691589E0,9.693028398E0
7.095417583E0,3.993695068E-1,-8.456514587E0,-4.719535675E0,9.692582316E0
7.105408583E0,4.040098572E-1,-8.484057312E0,-4.732857971E0,9.723291470E0
7.115399583E0,4.090992737E-1,-8.512498169E0,-4.759951630E0,9.761512527E0
7.125390583E0,4.026626587E-1,-8.510851593E0,-4.814588013E0,9.786571912E0
7.135381583E0,4.231700134E-1,-8.512647858E0,-4.837191010E0,9.800135880E0
7.145372583E0,4.851411438E-1,-8.500373383E0,-4.848866730E0,9.798123195E0
7.155362583E0,5.306465149E-1,-8.527467041E0,-4.885540466E0,9.842143339E0
7.165353583E0,5.789959717E-1,-8.553812256E0,-4.912933502E0,9.881288177E0
7.175344583E0,6.227050781E-1,-8.523126068E0,-4.876259766E0,9.839174198E0
7.185335583E0,6.536906433E-1,-8.538094940E0,-4.905598755E0,9.868701830E0
7.195326583E0,6.503974915E-1,-8.499325562E0,-4.918921051E0,9.841612480E0
7.205317583E0,6.503974915E-1,-8.485703888E0,-4.926255798E0,9.833523456E0
7.215308583E0,6.535409546E-1,-8.516988831E0,-4.950804749E0,9.873028015E0
7.225299583E0,6.718029785E-1,-8.484955444E0,-4.914131012E0,9.828248661E0
7.235289583E0,6.701564026E-1,-8.451874237E0,-4.872068481E0,9.778565284E0
7.245280583E0,6.069877625E-1,-8.464897156E0,-4.831802216E0,9.765717109E0
7.255271583E0,5.749543762E-1,-8.486302643E0,-4.816683655E0,9.774883453E0
7.265262583E0,5.701643372E-1,-8.490793304E0,-4.775219879E0,9.758144455E0
7.275253583E0,5.445675659E-1,-8.488398285E0,-4.761149139E0,9.747717702E0
7.285244583E0,5.486091614E-1,-8.503367157E0,-4.795427856E0,9.777747867E0
7.295235583E0,5.533992004E-1,-8.517437897E0,-4.822671204E0,9.803629763E0
7.305226583E0,5.457650757E-1,-8.545130310E0,-4.898114319E0,9.864513947E0
7.315216583E0,5.477110291E-1,-8.579109650E0,-4.952750702E0,9.921232245E0
7.325207583E0,5.575904846E-1,-8.563542023E0,-4.970713348E0,9.917315681E0
7.335198583E0,5.583389282E-1,-8.492439880E0,-4.928650818E0,9.834880597E0
7.345189583E0,5.566923523E-1,-8.466094666E0,-4.911885681E0,9.803636377E0
7.355180583E0,5.566923523E-1,-8.474028168E0,-4.940476227E0,9.824834101E0
7.365171583E0,5.330415344E-1,-8.398285675E0,-4.861889648E0,9.718709097E0
7.375162583E0,5.423222351E-1,-8.441545715E0,-4.900958405E0,9.776154702E0
7.385152583E0,5.170248413E-1,-8.513545990E0,-5.005291443E0,9.889424778E0
7.395143583E0,5.005590820E-1,-8.546028442E0,-4.999902649E0,9.913838209E0
7.405134583E0,4.474195862E-1,-8.607999573E0,-5.097350006E0,1.001403106E1
7.415125583E0,4.156855774E-1,-8.491092682E0,-4.999303894E0,9.862276048E0
7.425116583E0,3.918850708E-1,-8.366701355E0,-4.879702606E0,9.693645496E0
7.435107583E0,3.451821899E-1,-8.243806915E0,-4.789589996E0,9.540423237E0
7.445098583E0,3.357518005E-1,-8.207731934E0,-4.744683380E0,9.486390944E0
7.455089583E0,3.565585327E-1,-8.241262207E0,-4.773273926E0,9.530460677E0
7.465079583E0,4.305047607E-1,-8.258177032E0,-4.849016418E0,9.586228793E0
7.475070583E0,4.873864746E-1,-8.287366333E0,-4.941524048E0,9.661089288E0
7.485061833E0,5.782475281E-1,-8.322992249E0,-5.017565918E0,9.735632384E0
7.495052833E0,6.152206421E-1,-8.352480927E0,-5.061275024E0,9.785649643E0
7.505043833E0,6.029461670E-1,-8.364755402E0,-5.028193817E0,9.778313253E0
7.515034833E0,5.643264771E-1,-8.336314545E0,-4.963528290E0,9.718498734E0
7.525025833E0,5.498066711E-1,-8.304131470E0,-4.943470001E0,9.679813144E0
7.535016833E0,5.236111450E-1,-8.304131470E0,-4.899461517E0,9.655956258E0
7.545006833E0,5.215155029E-1,-8.362360382E0,-4.881798248E0,9.697061602E0
7.554997833E0,5.375321960E-1,-8.480165405E0,-4.931195526E0,9.824400006E0
7.564988833E0,5.222639465E-1,-8.608748016E0,-4.999603271E0,9.968918442E0
7.574979833E0,4.933740234E-1,-8.673563232E0,-5.066663818E0,1.005709696E1
7.584970833E0,4.685256958E-1,-8.660839691E0,-5.093308411E0,1.005840201E1
7.594961833E0,4.366419983E-1,-8.622220001E0,-5.126389618E0,1.004057790E1
7.604952833E0,4.123924255E-1,-8.528365173E0,-5.107828217E0,9.949522055E0
7.614943833E0,4.040098572E-1,-8.443491669E0,-5.059329071E0,9.851527099E0
7.624933833E0,3.939807129E-1,-8.447832642E0,-5.056484985E0,9.853382036E0
7.634924833E0,3.932322693E-1,-8.428672485E0,-5.029990082E0,9.823337096E0
7.644915833E0,3.734733582E-1,-8.430169373E0,-5.017116852E0,9.817265378E0
7.654906833E0,3.706292725E-1,-8.457562408E0,-5.025200043E0,9.844814037E0
7.664897833E0,3.742218018E-1,-8.469687195E0,-5.034181366E0,9.859950566E0
7.674888833E0,3.760180664E-1,-8.420589294E0,-5.014721832E0,9.807912556E0
7.684879833E0,3.769161987E-1,-8.396639099E0,-4.959337006E0,9.759130982E0
7.694870833E0,3.838018799E-1,-8.368497620E0,-4.932842102E0,9.721727598E0
7.704860833E0,3.791615295E-1,-8.386011200E0,-4.912334747E0,9.726252104E0
7.714851833E0,4.174818420E-1,-8.456215210E0,-4.908143463E0,9.786303644E0
7.724842833E0,4.394860840E-1,-8.511001282E0,-4.910688171E0,9.835911201E0
7.734833833E0,4.381388855E-1,-8.522976379E0,-4.922064514E0,9.851893784E0
7.744824833E0,4.300556946E-1,-8.515342255E0,-4.889432373E0,9.828659651E0
7.754815833E0,4.089495850E-1,-8.485853577E0,-4.870721283E0,9.792899290E0
7.764806833E0,4.140390015E-1,-8.433761902E0,-4.860692139E0,9.743002421E0
7.774796833E0,4.152365112E-1,-8.370144196E0,-4.852758636E0,9.684059149E0
7.784787833E0,3.912863159E-1,-8.317304077E0,-4.827461243E0,9.624709561E0
7.794778833E0,3.811074829E-1,-8.292156372E0,-4.830305328E0,9.604006965E0
7.804769833E0,3.993695068E-1,-8.272996216E0,-4.850662994E0,9.598483936E0
7.814760833E0,3.830534363E-1,-8.282276917E0,-4.863536224E0,9.612326746E0
7.824751833E0,3.817062378E-1,-8.353977814E0,-4.898563385E0,9.691778382E0
7.834742833E0,3.778143311E-1,-8.427774353E0,-4.941374359E0,9.776876023E0
7.844733833E0,3.779640198E-1,-8.513545990E0,-5.010680237E0,9.885860537E0
7.854723833E0,3.766168213E-1,-8.524622955E0,-4.996010742E0,9.887930021E0
7.864714833E0,3.764671326E-1,-8.502169647E0,-4.997058563E0,9.869103835E0
7.874705833E0,3.942800903E-1,-8.498427429E0,-4.994513855E0,9.865287335E0
7.884696833E0,3.835025024E-1,-8.485853577E0,-4.997058563E0,9.855322388E0
7.894687833E0,3.779640198E-1,-8.475674744E0,-4.998405762E0,9.847028959E0
7.904678833E0,3.802093506E-1,-8.479566650E0,-5.017565918E0,9.860201695E0
7.914669833E0,3.932322693E-1,-8.458610229E0,-5.018913116E0,9.843383946E0
7.924660833E0,4.032614136E-1,-8.411757660E0,-5.011129303E0,9.799576705E0
7.934650833E0,4.082011414E-1,-8.427175598E0,-5.024002533E0,9.819598677E0
7.944641833E0,3.927832031E-1,-8.451574860E0,-5.046006775E0,9.851171536E0
7.954632833E0,3.760180664E-1,-8.462202759E0,-5.058281250E0,9.865924910E0
7.964623833E0,3.526666260E-1,-8.443641357E0,-5.023852844E0,9.831508049E0
7.974614833E0,3.469784546E-1,-8.405919800E0,-5.020260315E0,9.797086065E0
7.984605833E0,3.318598938E-1,-8.396489410E0,-4.975952454E0,9.765821431E0
7.994596833E0,3.394940186E-1,-8.408763885E0,-4.965324554E0,9.771234016E0
8.004587833E0,3.543132019E-1,-8.415499878E0,-4.922812958E0,9.756037283E0
8.014577833E0,3.493734741E-1,-8.430169373E0,-4.892725525E0,9.753388157E0
8.024568833E0,3.797602844E-1,-8.417296143E0,-4.892575836E0,9.743325435E0
8.034559833E0,3.999682617E-1,-8.408165131E0,-4.899760895E0,9.739859973E0
8.044550833E0,4.168830872E-1,-8.412805481E0,-4.913681946E0,9.751582325E0
8.054541833E0,4.117936707E-1,-8.442743225E0,-4.922064514E0,9.781421485E0
8.064532833E0,4.031117249E-1,-8.466843109E0,-4.951553192E0,9.816710768E0
8.074523833E0,3.974235535E-1,-8.483757935E0,-4.974006500E0,9.842399852E0
8.084514833E0,3.832031250E-1,-8.485554199E0,-4.966671753E0,9.839680026E0
8.094504833E0,3.559597778E-1,-8.464448090E0,-4.971012726E0,9.822655259E0
8.104495833E0,3.442840576E-1,-8.497229919E0,-5.000351715E0,9.865341610E0
8.114486833E0,3.454815674E-1,-8.504265289E0,-4.991370392E0,9.866897385E0
8.124477833E0,3.558100891E-1,-8.516988831E0,-4.992567902E0,9.878837675E0
8.134468833E0,3.435356140E-1,-8.528065796E0,-4.999902649E0,9.891660601E0
8.144459833E0,3.394940186E-1,-8.498726807E0,-4.995561676E0,9.864038219E0
8.154450833E0,3.153941345E-1,-8.458759918E0,-4.992418213E0,9.827224045E0
8.164441833E0,3.056643677E-1,-8.441246338E0,-5.019062805E0,9.825429349E0
8.174431833E0,3.144960022E-1,-8.409662018E0,-5.024750977E0,9.801502199E0
8.184422833E0,3.118016052E-1,-8.420589294E0,-5.056934052E0,9.827315315E0
8.194413833E0,3.456312561E-1,-8.403973846E0,-5.033582611E0,9.802203389E0
8.204404833E0,3.608995056E-1,-8.393495636E0,-4.997357941E0,9.775203519E0
8.214395833E0,3.824546814E-1,-8.387957153E0,-4.958139496E0,9.751268843E0
8.224386833E0,4.248165894E-1,-8.424032135E0,-4.932093658E0,9.770892201E0
8.234377833E0,4.388873291E-1,-8.469687195E0,-4.925956421E0,9.807816777E0
8.244367833E0,4.608915710E-1,-8.511300659E0,-4.928800507E0,9.846204060E0
8.254358833E0,5.005590820E-1,-8.530610504E0,-4.932542725E0,9.866704247E0
8.264349833E0,4.975653076E-1,-8.503067780E0,-4.943470001E0,9.848229717E0
8.274340833E0,5.107379150E-1,-8.416398010E0,-4.908592529E0,9.756581845E0
8.284331833E0,5.028044128E-1,-8.394842834E0,-4.941823425E0,9.754374263E0
8.294322833E0,4.956193542E-1,-8.403225403E0,-4.939578094E0,9.760085423E0
8.304313833E0,4.757107544E-1,-8.407566376E0,-4.959935760E0,9.773148716E0
8.314304833E0,4.734654236E-1,-8.418194275E0,-4.977299652E0,9.790999754E0
8.324294833E0,4.526586914E-1,-8.454418945E0,-4.995411987E0,9.830373366E0
8.334285833E0,4.087998962E-1,-8.464897156E0,-5.023403778E0,9.851709838E0
8.344276833E0,3.683839417E-1,-8.478818207E0,-5.019511871E0,9.860099611E0
8.354267833E0,3.519181824E-1,-8.456514587E0,-4.982538757E0,9.821516066E0
8.364258833E0,3.442840576E-1,-8.465795288E0,-4.968168640E0,9.821961159E0
8.374249833E0,3.192860413E-1,-8.478369141E0,-4.947661285E0,9.821610818E0
8.384240833E0,3.164419556E-1,-8.454868011E0,-4.931644592E0,9.793163278E0
8.394231833E0,3.098556519E-1,-8.434510345E0,-4.945415955E0,9.782336850E0
8.404221833E0,3.243754578E-1,-8.401279449E0,-4.946763153E0,9.754854254E0
8.414212833E0,3.433859253E-1,-8.396788788E0,-4.942122803E0,9.749284776E0
8.424203833E0,3.586541748E-1,-8.422235870E0,-4.947810974E0,9.774636735E0
8.434194833E0,3.790118408E-1,-8.447533264E0,-4.987179108E0,9.817149468E0
8.444185833E0,4.026626587E-1,-8.481362915E0,-5.034331055E0,9.871177401E0
8.454176833E0,4.029620361E-1,-8.478967896E0,-5.048701172E0,9.876469941E0
8.464167833E0,4.010160828E-1,-8.464448090E0,-5.031337280E0,9.855052013E0
8.474158833E0,3.824546814E-1,-8.432714081E0,-5.001998291E0,9.812080577E0
8.484148833E0,3.908372498E-1,-8.397986298E0,-4.938979340E0,9.750509962E0
8.494139250E0,3.954776001E-1,-8.391399994E0,-4.929698639E0,9.740324690E0
8.504130250E0,3.695814514E-1,-8.404722290E0,-4.918621674E0,9.745192989E0
8.514121250E0,3.761677551E-1,-8.442294159E0,-4.909340973E0,9.773201197E0
8.524112250E0,3.694317627E-1,-8.475525055E0,-4.963528290E0,9.828917431E0
8.534103250E0,3.820056152E-1,-8.477920074E0,-4.978347473E0,9.838953229E0
8.544094250E0,3.704795837E-1,-8.463999023E0,-4.970713348E0,9.822653704E0
8.554085250E0,3.601510620E-1,-8.425079956E0,-4.956792297E0,9.781690597E0
8.564075250E0,3.734733582E-1,-8.386310577E0,-4.936135254E0,9.738332439E0
8.574066250E0,3.704795837E-1,-8.365354156E0,-4.913532257E0,9.708717965E0
8.584057250E0,3.963757324E-1,-8.367898865E0,-4.900359650E0,9.705275361E0
8.594048250E0,3.947291565E-1,-8.406368866E0,-4.901557159E0,9.738999497E0
8.604039250E0,3.920347595E-1,-8.439150696E0,-4.919669495E0,9.776303169E0
8.614030250E0,3.885919189E-1,-8.447233887E0,-4.934488678E0,9.790604809E0
8.624021250E0,3.650907898E-1,-8.453520813E0,-4.909640350E0,9.782631230E0
8.634011250E0,3.414399719E-1,-8.459508362E0,-4.931794281E0,9.798084395E0
8.644002250E0,3.179388428E-1,-8.430768127E0,-4.941823425E0,9.777553635E0
8.653993250E0,2.733316040E-1,-8.418793030E0,-4.971611481E0,9.780987014E0
8.663984250E0,2.625540161E-1,-8.427325287E0,-5.003644867E0,9.804346386E0
8.673975250E0,2.568658447E-1,-8.427025909E0,-5.020260315E0,9.812428821E0
8.683966250E0,2.689906311E-1,-8.415799255E0,-5.047503662E0,9.817093576E0
8.693957250E0,2.730322266E-1,-8.443341980E0,-5.083578644E0,9.859378389E0
8.703948250E0,2.957849121E-1,-8.454418945E0,-5.073699188E0,9.864436723E0
8.713938250E0,3.192860413E-1,-8.458161163E0,-5.041216736E0,9.851715588E0
8.723929250E0,3.296145630E-1,-8.416697388E0,-4.970863037E0,9.780537818E0
8.733920250E0,3.917353821E-1,-8.424032135E0,-4.960833893E0,9.784050640E0
8.743911250E0,4.023632813E-1,-8.392298126E0,-4.955744476E0,9.754586991E0
8.753902250E0,4.041595459E-1,-8.419541473E0,-4.928501129E0,9.764330338E0
8.763893250E0,4.025129700E-1,-8.465645599E0,-4.947960663E0,9.813841594E0
8.773884250E0,4.023632813E-1,-8.493637390E0,-4.966222687E0,9.847189452E0
8.783875250E0,3.897894287E-1,-8.464148712E0,-4.959486694E0,9.817854017E0
8.793865250E0,3.659889221E-1,-8.432115326E0,-4.945266266E0,9.782135513E0
8.803856250E0,3.555107117E-1,-8.461304626E0,-4.957391052E0,9.813041827E0
8.813847250E0,3.357518005E-1,-8.478668518E0,-4.945116577E0,9.821136751E0
8.823838250E0,3.101550293E-1,-8.504115601E0,-4.969665527E0,9.854631081E0
8.833829250E0,2.939886475E-1,-8.542735291E0,-5.007686462E0,9.906648236E0
8.843820250E0,2.742297363E-1,-8.527766418E0,-5.023104401E0,9.900988832E0
8.853811250E0,2.514770508E-1,-8.518036652E0,-5.029391327E0,9.895199150E0
8.863802250E0,2.381547546E-1,-8.479566650E0,-5.001698914E0,9.847677913E0
8.873792250E0,2.163002014E-1,-8.441994781E0,-4.993016968E0,9.810416918E0
8.883783250E0,2.180964661E-1,-8.422535248E0,-4.918172607E0,9.755772028E0
8.893774250E0,2.246827698E-1,-8.458909607E0,-4.944218445E0,9.800455608E0
8.903765250E0,2.157014465E-1,-8.460556183E0,-4.942422180E0,9.800769105E0
8.913756250E0,2.360591125E-1,-8.437504120E0,-4.919220428E0,9.769643254E0
8.923747250E0,2.384541321E-1,-8.473130035E0,-4.994663544E0,9.838569860E0
8.933738250E0,2.381547546E-1,-8.428672485E0,-4.938829651E0,9.771963767E0
8.943729250E0,2.806663513E-1,-8.383167114E0,-4.944368134E0,9.736685304E0
8.953719250E0,3.034190369E-1,-8.360264740E0,-4.897066498E0,9.693675769E0
8.963710250E0,3.239263916E-1,-8.373587036E0,-4.864284668E0,9.689331942E0
8.973701250E0,3.559597778E-1,-8.376281433E0,-4.855752411E0,9.688505018E0
8.983692250E0,3.948788452E-1,-8.419990540E0,-4.880600739E0,9.740248126E0
8.993683250E0,4.318519592E-1,-8.444539490E0,-4.935237122E0,9.790470303E0
9.003674250E0,4.562512207E-1,-8.448880463E0,-4.939278717E0,9.797357832E0
9.013665250E0,4.553530884E-1,-8.428522797E0,-4.954546967E0,9.787485817E0
9.023656250E0,4.448748779E-1,-8.381370850E0,-4.920118561E0,9.728970019E0
9.033646250E0,4.429289246E-1,-8.370293884E0,-4.903952179E0,9.711166393E0
9.043637250E0,4.070036316E-1,-8.396788788E0,-4.922812958E0,9.741960856E0
9.053628250E0,3.987707520E-1,-8.419990540E0,-4.962031403E0,9.781462796E0
9.063619250E0,3.757186890E-1,-8.484057312E0,-4.980443115E0,9.845060012E0
9.073610250E0,3.309617615E-1,-8.528215485E0,-4.989274750E0,9.885992999E0
9.083601250E0,3.191363525E-1,-8.522677002E0,-4.994064789E0,9.883246147E0
9.093592250E0,2.866539001E-1,-8.508456573E0,-5.003046112E0,9.874536653E0
9.103583250E0,2.577639771E-1,-8.463849335E0,-4.963677979E0,9.815359744E0
9.113573250E0,2.561174011E-1,-8.447084198E0,-4.970563660E0,9.804352639E0
9.123564250E0,2.598596191E-1,-8.447682953E0,-4.967420197E0,9.803373792E0
9.133555250E0,2.644999695E-1,-8.465495911E0,-4.971611481E0,9.820972557E0
9.143546250E0,2.860551453E-1,-8.490493927E0,-4.998854828E0,9.856919613E0
9.153537250E0,2.968327332E-1,-8.488997040E0,-5.009931793E0,9.861571730E0
9.163528250E0,3.107537842E-1,-8.467292175E0,-5.024152222E0,9.850569031E0
9.173519250E0,3.213816833E-1,-8.457113342E0,-5.032983856E0,9.846673487E0
9.183510250E0,3.546125793E-1,-8.422385559E0,-5.050048370E0,9.826765344E0
9.193500250E0,3.650907898E-1,-8.415649567E0,-5.019511871E0,9.805709987E0
9.203491250E0,4.022135925E-1,-8.423283691E0,-4.979694672E0,9.793408137E0
9.213482250E0,4.107458496E-1,-8.421188049E0,-4.948709106E0,9.776238650E0
9.223473250E0,4.076023865E-1,-8.338709564E0,-4.886737976E0,9.673697584E0
9.233464250E0,4.132905579E-1,-8.364456024E0,-4.860991516E0,9.683190186E0
9.243455250E0,4.197271729E-1,-8.416697388E0,-4.906945953E0,9.751670852E0
9.253446250E0,4.337979126E-1,-8.458759918E0,-4.912185059E0,9.791239045E0
9.263437250E0,4.116439819E-1,-8.482111359E0,-4.911586304E0,9.810165334E0
9.273427250E0,4.034111023E-1,-8.480614471E0,-4.911885681E0,9.808678977E0
9.283418250E0,3.876937866E-1,-8.519832916E0,-4.928351440E0,9.850203415E0
9.293409250E0,3.758683777E-1,-8.481811981E0,-4.921914825E0,9.813646472E0
9.303400250E0,3.855981445E-1,-8.428672485E0,-4.910388794E0,9.762331889E0
9.313391250E0,4.032614136E-1,-8.411458282E0,-4.916376343E0,9.751205390E0
9.323382250E0,4.288581848E-1,-8.399932251E0,-4.907993774E0,9.738130419E0
9.333373250E0,4.793032837E-1,-8.407716064E0,-4.909790039E0,9.748100291E0
9.343364250E0,5.107379150E-1,-8.419840851E0,-4.928052063E0,9.769353628E0
9.353354250E0,5.381309509E-1,-8.448581085E0,-4.950355682E0,9.806840911E0
9.363345250E0,5.210664368E-1,-8.468938751E0,-4.961582336E0,9.829126771E0
9.373336250E0,5.129832458E-1,-8.470136261E0,-4.990322571E0,9.844271403E0
9.383327250E0,5.275030518E-1,-8.444389801E0,-5.009632416E0,9.832720657E0
9.393318250E0,4.951702881E-1,-8.429570618E0,-5.040019226E0,9.833852155E0
9.403309250E0,4.821473694E-1,-8.412206726E0,-5.025499420E0,9.810878274E0
9.413300250E0,4.947212219E-1,-8.392896881E0,-5.007985840E0,9.785979221E0
9.423291250E0,4.775070190E-1,-8.379873962E0,-5.050198059E0,9.795652149E0
9.433281250E0,4.361929321E-1,-8.387957153E0,-5.031936035E0,9.791244545E0
9.443272250E0,4.245172119E-1,-8.412206726E0,-5.001549225E0,9.795965063E0
9.453263250E0,4.110452271E-1,-8.396938477E0,-4.981640625E0,9.772117338E0
9.463254250E0,4.195774841E-1,-8.403075714E0,-4.988077240E0,9.781034775E0
9.473245250E0,4.195774841E-1,-8.422235870E0,-4.999902649E0,9.803526346E0
9.483236250E0,4.125421143E-1,-8.461903381E0,-5.020559692E0,9.847843391E0
9.493227833E0,4.052073669E-1,-8.459208984E0,-5.028493195E0,9.849271722E0
9.503218833E0,3.866459656E-1,-8.462651825E0,-5.066214752E0,9.870790390E0
9.513208833E0,3.779640198E-1,-8.446934509E0,-5.052443390E0,9.849910843E0
9.523199833E0,3.538641357E-1,-8.446784821E0,-5.059927826E0,9.852728720E0
9.533190833E0,3.540138245E-1,-8.441246338E0,-5.030439148E0,9.832867514E0
9.543181833E0,3.769161987E-1,-8.436456299E0,-4.991669769E0,9.809823025E0
9.553172833E0,3.730242920E-1,-8.444838867E0,-4.946763153E0,9.794126623E0
9.563163833E0,3.812571716E-1,-8.460406494E0,-4.906047821E0,9.787397013E0
9.573154833E0,4.110452271E-1,-8.429720306E0,-4.847669220E0,9.732884438E0
9.583144833E0,4.375401306E-1,-8.362210693E0,-4.791685638E0,9.647707515E0
9.593135833E0,4.450245667E-1,-8.340056763E0,-4.798421631E0,9.632208668E0
9.603126833E0,4.376898193E-1,-8.355774078E0,-4.819827118E0,9.656151732E0
9.613117833E0,4.185296631E-1,-8.372239838E0,-4.872068481E0,9.695701020E0
9.623108833E0,4.385879517E-1,-8.480913849E0,-4.986131287E0,9.847830437E0
9.633099833E0,4.713697815E-1,-8.502169647E0,-5.052443390E0,9.901326294E0
9.643090833E0,4.623884583E-1,-8.469687195E0,-5.043312378E0,9.868353662E0
9.653081833E0,4.532574463E-1,-8.425079956E0,-5.040468292E0,9.828211189E0
9.663071833E0,4.254153442E-1,-8.399034119E0,-4.999752960E0,9.783776469E0
9.673062833E0,3.966751099E-1,-8.358468475E0,-4.969366150E0,9.732211790E0
9.683053833E0,3.806584167E-1,-8.363857269E0,-4.952151947E0,9.727426081E0
9.693044833E0,3.812571716E-1,-8.412955170E0,-4.971761169E0,9.779651366E0
9.703035833E0,3.923341370E-1,-8.461753693E0,-4.992118835E0,9.832418426E0
9.713026833E0,4.065545654E-1,-8.506809998E0,-5.001100159E0,9.876340706E0
9.723017833E0,4.188290405E-1,-8.501271515E0,-4.999902649E0,9.871477176E0
9.733008833E0,4.224215698E-1,-8.486751709E0,-4.980143738E0,9.849123118E0
9.742998833E0,4.120930481E-1,-8.466843109E0,-4.959636383E0,9.821163168E0
9.752989833E0,4.128414917E-1,-8.447832642E0,-4.919968872E0,9.784804962E0
9.762980833E0,3.878434753E-1,-8.433163147E0,-4.924609222E0,9.773455848E0
9.772971833E0,3.888912964E-1,-8.449928284E0,-4.941673737E0,9.796563875E0
9.782962833E0,3.992198181E-1,-8.438551941E0,-4.974305878E0,9.803685750E0
9.792953833E0,3.992198181E-1,-8.426726532E0,-4.998405762E0,9.805771600E0
9.802944833E0,4.105961609E-1,-8.419840851E0,-4.986580353E0,9.794298994E0
9.812935833E0,4.303550720E-1,-8.403674469E0,-4.979694672E0,9.777745604E0
9.822925833E0,4.372407532E-1,-8.415499878E0,-4.953199768E0,9.774763711E0
9.832916833E0,4.420307922E-1,-8.442593536E0,-4.950655060E0,9.797028241E0
9.842907833E0,4.442761230E-1,-8.471333771E0,-4.948858795E0,9.821002011E0
9.852898833E0,4.501139832E-1,-8.495433655E0,-4.950954437E0,9.843116652E0
9.862889833E0,4.403842163E-1,-8.478069763E0,-4.967869263E0,9.836225403E0
9.872880833E0,4.453239441E-1,-8.441845093E0,-4.971461792E0,9.807063492E0
9.882871833E0,4.555027771E-1,-8.415649567E0,-4.958738251E0,9.778533911E0
9.892862833E0,4.484674072E-1,-8.369545441E0,-4.939278717E0,9.728663225E0
9.902852833E0,4.507127380E-1,-8.400231628E0,-4.959486694E0,9.765425831E0
9.912843833E0,4.716691589E-1,-8.434660034E0,-5.012177124E0,9.822824503E0
9.922834833E0,4.727169800E-1,-8.455766144E0,-5.023553467E0,9.846803129E0
9.932825833E0,4.692741394E-1,-8.465795288E0,-5.036576385E0,9.861896864E0
9.942816833E0,4.587959290E-1,-8.466992798E0,-5.038971405E0,9.863655183E0
9.952807833E0,4.412823486E-1,-8.438701630E0,-5.019212494E0,9.828474417E0
9.962798833E0,4.200265503E-1,-8.405620422E0,-4.956642609E0,9.767250531E0
9.972788833E0,4.149371338E-1,-8.368347931E0,-4.927303619E0,9.720068975E0
9.982779833E0,4.281097412E-1,-8.382867737E0,-4.890031128E0,9.714327248E0
9.992770833E0,4.399351501E-1,-8.409362640E0,-4.896467743E0,9.740960903E0
1.000276183E1,4.665797424E-1,-8.416547699E0,-4.930147705E0,9.765363701E0
1.001275283E1,4.682263184E-1,-8.443940735E0,-4.932243347E0,9.790117234E0
1.002274383E1,4.751119995E-1,-8.452772369E0,-4.935985565E0,9.799951308E0
1.003273483E1,4.767585754E-1,-8.452622681E0,-4.951702881E0,9.807828013E0
1.004272583E1,4.745132446E-1,-8.483159180E0,-4.977898407E0,9.847264851E0
1.005271583E1,4.810995483E-1,-8.455915833E0,-4.954996033E0,9.812540702E0
1.006270683E1,4.632865906E-1,-8.409512329E0,-4.934788055E0,9.761488884E0
1.007269783E1,4.453239441E-1,-8.418942719E0,-4.926255798E0,9.764471624E0
1.008268883E1,4.490661621E-1,-8.436905365E0,-4.925207977E0,9.779606647E0
1.009267983E1,4.478686523E-1,-8.450227661E0,-4.928351440E0,9.792628951E0
1.010267083E1,4.278103638E-1,-8.454418945E0,-4.924309845E0,9.793316540E0
1.011266183E1,4.093986511E-1,-8.474626923E0,-4.952301636E0,9.824062308E0
1.012265283E1,4.111949158E-1,-8.508905640E0,-4.961582336E0,9.858390118E0
1.013264283E1,4.219725037E-1,-8.480764160E0,-4.912334747E0,9.809814178E0
1.014263383E1,4.068539429E-1,-8.441695404E0,-4.922363892E0,9.780461017E0
1.015262483E1,4.195774841E-1,-8.430917816E0,-4.913083191E0,9.767026514E0
1.016261583E1,4.270619202E-1,-8.375832367E0,-4.879253540E0,9.702786447E0
1.017260683E1,4.412823486E-1,-8.382867737E0,-4.863985291E0,9.701832534E0
1.018259783E1,4.680766296E-1,-8.419242096E0,-4.869074707E0,9.737074597E0
1.019258883E1,5.102888489E-1,-8.431965637E0,-4.858297119E0,9.744818629E0
1.020257883E1,5.185217285E-1,-8.451425171E0,-4.901108093E0,9.783471406E0
1.021256983E1,5.236111450E-1,-8.478369141E0,-4.946613464E0,9.829847236E0
1.022256083E1,5.592370605E-1,-8.491990814E0,-4.952002258E0,9.846267336E0
1.023255183E1,5.674699402E-1,-8.464747467E0,-4.960983582E0,9.827783571E0
1.024254283E1,5.794450378E-1,-8.482261047E0,-4.966372375E0,9.846286792E0
1.025253383E1,5.893244934E-1,-8.489745483E0,-4.980293427E0,9.860345042E0
1.026252483E1,6.331832886E-1,-8.471483459E0,-4.959636383E0,9.836917512E0
1.027251583E1,6.738986206E-1,-8.472830658E0,-5.002447357E0,9.862427605E0
1.028250583E1,7.162605286E-1,-8.471184082E0,-5.001249847E0,9.863391350E0
1.029249683E1,7.545808411E-1,-8.450077972E0,-4.979095917E0,9.836900230E0
1.030248783E1,7.906558228E-1,-8.397986298E0,-4.939129028E0,9.774779079E0
1.031247883E1,8.265811157E-1,-8.336464233E0,-4.945715332E0,9.728307787E0
1.032246983E1,8.518785095E-1,-8.308622131E0,-4.889582062E0,9.678166740E0
1.033246083E1,8.572673035E-1,-8.277037811E0,-4.861590271E0,9.637391873E0
1.034245183E1,8.897497559E-1,-8.315358124E0,-4.864434357E0,9.674686401E0
1.035244183E1,9.032217407E-1,-8.352929993E0,-4.867278442E0,9.709667781E0
1.036243283E1,9.059161377E-1,-8.364006958E0,-4.857548676E0,9.714580566E0
1.037242383E1,9.009764099E-1,-8.336464233E0,-4.815186768E0,9.669251161E0
1.038241483E1,8.779243469E-1,-8.305778046E0,-4.782404938E0,9.624349178E0
1.039240583E1,8.616082764E-1,-8.265062714E0,-4.744084625E0,9.568697373E0
1.040239683E1,8.427474976E-1,-8.285719757E0,-4.706961823E0,9.566549265E0
1.041238783E1,8.273295593E-1,-8.348139954E0,-4.709057465E0,9.620350154E0
1.042237883E1,8.289761353E-1,-8.382119293E0,-4.731810150E0,9.661115493E0
1.043236883E1,8.234376526E-1,-8.416248322E0,-4.747677155E0,9.698026796E0
1.044235983E1,8.214916992E-1,-8.423134003E0,-4.734504547E0,9.697400082E0
1.045235083E1,7.973918152E-1,-8.438402252E0,-4.780608673E0,9.731222203E0
1.046234183E1,7.792794800E-1,-8.459358673E0,-4.786745911E0,9.750946727E0
1.047233283E1,7.940986633E-1,-8.430019684E0,-4.776267700E0,9.721551198E0
1.048232383E1,7.726931763E-1,-8.410260773E0,-4.790188751E0,9.709554536E0
1.049231412E1,8.161029053E-1,-8.425529022E0,-4.757706299E0,9.710372417E0
1.050230513E1,8.149053955E-1,-8.418793030E0,-4.714146881E0,9.683146580E0
1.051229512E1,7.917036438E-1,-8.390801239E0,-4.612807617E0,9.607826716E0
1.052228612E1,7.851173401E-1,-8.357869720E0,-4.531975708E0,9.539874177E0
1.053227712E1,7.674540710E-1,-8.359067230E0,-4.486769714E0,9.518092938E0
1.054226812E1,7.511380005E-1,-8.328979797E0,-4.474944305E0,9.484789892E0
1.055225912E1,7.454498291E-1,-8.312963104E0,-4.406237183E0,9.438007053E0
1.056225012E1,7.369175720E-1,-8.307873688E0,-4.415368195E0,9.437122920E0
1.057224112E1,7.146139526E-1,-8.352480927E0,-4.398603058E0,9.466906548E0
1.058223112E1,6.727011108E-1,-8.393645325E0,-4.365671539E0,9.484982689E0
1.059222212E1,6.830296326E-1,-8.541238403E0,-4.404590607E0,9.634298177E0
1.060221312E1,6.445596313E-1,-8.707692261E0,-4.460723877E0,9.804969104E0
1.061220412E1,5.752537537E-1,-8.715476074E0,-4.379442902E0,9.770873053E0
1.062219512E1,5.128335571E-1,-8.607849884E0,-4.193379822E0,9.588665820E0
1.063218612E1,4.595443726E-1,-8.415200500E0,-4.013603668E0,9.334655585E0
1.064217712E1,4.354444885E-1,-8.274493103E0,-3.867956543E0,9.144284326E0
1.065216712E1,3.677851868E-1,-8.226143646E0,-3.761527863E0,9.052833650E0
1.066215812E1,2.797682190E-1,-8.093070374E0,-3.614683228E0,8.868032091E0
1.067214912E1,2.323168945E-1,-7.907007294E0,-3.373684387E0,8.599795453E0
1.068214012E1,1.766326904E-1,-7.728877716E0,-3.156186676E0,8.350345154E0
1.069213112E1,1.517843628E-1,-7.606432343E0,-2.924917603E0,8.150827839E0
1.070212212E1,1.243913269E-1,-7.532935181E0,-2.663261719E0,7.990841546E0
1.071211312E1,7.289840698E-2,-7.600893860E0,-2.509082336E0,8.004648388E0
1.072210412E1,6.361770630E-2,-7.789351959E0,-2.351460114E0,8.136793952E0
1.073209413E1,1.176553345E-1,-8.096662903E0,-2.285447388E0,8.413861343E0
1.074208512E1,1.672023010E-1,-8.378975830E0,-2.258952484E0,8.679749933E0
1.075207613E1,1.258882141E-1,-8.844208374E0,-2.308499451E0,9.141391542E0
1.076206712E1,2.043251038E-1,-9.319619751E0,-2.316582642E0,9.605395160E0
1.077205813E1,1.725910950E-1,-9.842482452E0,-2.407294006E0,1.013406695E1
1.078204912E1,2.067201233E-1,-1.038824753E1,-2.597847748E0,1.071014626E1
1.079204013E1,2.267784119E-1,-1.063942520E1,-2.656825104E0,1.096847832E1
1.080203012E1,9.819580078E-2,-1.075034454E1,-2.613714752E0,1.106395296E1
1.081202112E1,8.981323242E-3,-1.082653610E1,-2.623594208E0,1.113989278E1
1.082201212E1,-6.077362061E-2,-1.085348007E1,-2.594105530E0,1.115935064E1
1.083200312E1,1.297801208E-1,-1.096155533E1,-2.586321716E0,1.126328541E1
1.084199412E1,3.779640198E-1,-1.083192490E1,-2.872975616E0,1.121282492E1
1.085198512E1,3.742218018E-1,-1.064855621E1,-2.952610016E0,1.105665850E1
1.086197612E1,2.562670898E-1,-1.054572006E1,-2.757715302E0,1.090334252E1
1.087196712E1,1.046324158E-1,-1.023077499E1,-2.619851990E0,1.056140755E1
1.088195712E1,-7.259902954E-2,-9.640702057E0,-3.162922668E0,1.014655048E1
1.089194812E1,1.977388000E-1,-9.141340485E0,-3.958518219E0,9.963587355E0
1.090193912E1,1.201701050E0,-9.185498657E0,-4.614005127E0,1.034922772E1
1.091193012E1,1.645677795E0,-9.691745911E0,-4.584366760E0,1.084687111E1
1.092192112E1,1.313817902E0,-9.622739410E0,-4.424499207E0,1.067236733E1
1.093191212E1,8.226892090E-1,-9.373358002E0,-4.575535126E0,1.046289537E1
1.094190312E1,7.246430969E-1,-9.296867065E0,-4.223167877E0,1.023679597E1
1.095189312E1,6.429130554E-1,-9.269773407E0,-4.058510284E0,1.013970127E1
1.096188412E1,5.156776428E-1,-9.204808502E0,-4.287084961E0,1.016727694E1
1.097187512E1,4.424798584E-1,-9.142088928E0,-4.186494141E0,1.006480559E1
1.098186612E1,4.701722717E-1,-9.110803986E0,-3.995341644E0,9.959446073E0
1.099185712E1,4.302053833E-1,-9.012608185E0,-3.683540039E0,9.745801670E0
1.100184812E1,1.356179810E-1,-8.897198181E0,-3.073708191E0,9.414149444E0
1.101183912E1,-3.367996216E-2,-8.944050751E0,-2.473606110E0,9.279865589E0
1.102183012E1,1.860630798E-1,-9.072034607E0,-1.935175781E0,9.278002839E0
1.103182012E1,4.852908325E-1,-9.396559753E0,-1.547182617E0,9.535440024E0
1.104181113E1,5.671705627E-1,-9.867181091E0,-1.369053040E0,9.977838010E0
1.105180212E1,5.459147644E-1,-1.035292099E1,-1.577270050E0,1.048659987E1
1.106179313E1,3.718267822E-1,-1.086081482E1,-1.682201843E0,1.099660660E1
1.107178412E1,8.268804932E-1,-1.122500748E1,-1.567689972E0,1.136407392E1
1.108177512E1,3.709286499E-1,-1.140403519E1,-1.499132538E0,1.150812778E1
1.109176612E1,1.869612122E-1,-1.140867554E1,-1.376088409E0,1.149288699E1
1.110175612E1,1.266366577E-1,-1.093401260E1,-1.218466187E0,1.100242375E1
1.111174712E1,3.951782227E-2,-1.055185730E1,-1.378184052E0,1.064155277E1
1.112173812E1,2.118095398E-1,-1.040037231E1,-1.384021912E0,1.049419479E1
1.113172912E1,3.113525391E-2,-1.050425629E1,-1.397643585E0,1.059687582E1
1.114172012E1,-4.879852295E-2,-1.047581543E1,-1.354682922E0,1.056315559E1
1.115171112E1,1.555265808E-1,-1.049497559E1,-1.356030121E0,1.058336047E1
1.116170212E1,-2.365081787E-2,-1.044976959E1,-1.489851837E0,1.055546789E1
1.117169212E1,-1.212478638E-2,-1.069870193E1,-1.571132813E0,1.081345590E1
1.118168312E1,-4.281097412E-2,-1.077893509E1,-1.515598297E0,1.088504996E1
1.119167412E1,-8.412506104E-2,-1.071681427E1,-1.300944672E0,1.079581596E1
1.120166512E1,-3.692820740E-1,-1.051817734E1,-1.190324707E0,1.059175607E1
1.121165612E1,-1.683998108E-1,-1.050096313E1,-1.040785675E0,1.055375858E1
1.122164712E1,-2.233355713E-1,-1.062221100E1,-8.788224792E-1,1.066084304E1
1.123163812E1,-3.062631226E-1,-1.042432251E1,-7.979905701E-1,1.045930618E1
1.124162812E1,-2.893482971E-1,-9.818681946E0,-5.381309509E-1,9.837673633E0
1.125161912E1,-3.441343689E-1,-9.618398438E0,-6.791377258E-1,9.648484079E0
1.126161012E1,-4.522096252E-1,-9.553732910E0,-8.015830994E-1,9.597960280E0
1.127160112E1,-5.902226257E-1,-9.314680023E0,-8.261320496E-1,9.369851698E0
1.128159212E1,-6.779402161E-1,-9.276509399E0,-9.116043091E-1,9.345814678E0
1.129158312E1,-5.239105225E-1,-9.527836761E0,-1.158441010E0,9.612291150E0
1.130157412E1,-4.451742554E-1,-1.008797195E1,-1.509610748E0,1.021000896E1
1.131156513E1,-4.912783813E-1,-1.025712021E1,-1.663939819E0,1.040281525E1
1.132155512E1,-6.152206421E-1,-1.012255005E1,-1.705403595E0,1.028362375E1
1.133154613E1,-7.842192078E-1,-9.962383118E0,-1.902843018E0,1.017275227E1
1.134153712E1,-9.056167603E-1,-9.765841827E0,-1.993704071E0,1.000832974E1
1.135152813E1,-9.901908875E-1,-9.598040771E0,-2.108964386E0,9.876770496E0
1.136151912E1,-1.094972992E0,-9.453740845E0,-2.138602753E0,9.754271041E0
1.137151012E1,-1.115480347E0,-9.363328857E0,-2.248623962E0,9.693943131E0
1.138150112E1,-1.065334625E0,-9.261390839E0,-2.340233459E0,9.611711126E0
1.139149112E1,-7.894583130E-1,-8.966204681E0,-2.461181946E0,9.331317559E0
1.140148212E1,-3.977229309E-1,-8.686586151E0,-2.511776733E0,9.051186930E0
1.141147312E1,7.559280396E-2,-8.589737549E0,-2.601889343E0,8.975474003E0
1.142146412E1,5.457650757E-1,-8.707243195E0,-3.003204803E0,9.226764474E0
1.143145512E1,9.372010803E-1,-8.956474915E0,-3.525319061E0,9.670815025E0
1.144144612E1,1.372645569E0,-9.370962982E0,-3.879183197E0,1.023460626E1
1.145143712E1,1.678459625E0,-9.915530548E0,-4.333488464E0,1.095052944E1
1.146142712E1,1.692230988E0,-1.034229309E1,-4.766388245E0,1.151282454E1
1.147141812E1,1.501228180E0,-1.051638107E1,-4.975353699E0,1.173039221E1
1.148140912E1,1.105451202E0,-1.052970337E1,-4.618944855E0,1.155124785E1
1.149140033E1,6.812333679E-1,-1.044108765E1,-4.242627411E0,1.129071643E1
1.150139133E1,4.117936707E-1,-1.007315277E1,-3.822900238E0,1.078204744E1
1.151138233E1,2.854563904E-1,-9.558073883E0,-3.496728516E0,1.018161932E1
1.152137333E1,2.492317200E-1,-9.252110138E0,-3.349584503E0,9.842935274E0
1.153136433E1,2.405497742E-1,-8.948691101E0,-3.425326996E0,9.584873585E0
1.154135433E1,1.585203552E-1,-8.705147552E0,-3.462449799E0,9.369806893E0
1.155134533E1,-4.685256958E-2,-8.491392059E0,-3.609893188E0,9.226985591E0
1.156133633E1,-3.784130859E-1,-8.377029877E0,-3.695365448E0,9.163708409E0
1.157132733E1,-5.905220032E-1,-8.216413879E0,-3.570824432E0,8.978249295E0
1.158131833E1,-6.753955078E-1,-8.112230530E0,-3.322341156E0,8.792178002E0
1.159130933E1,-8.327183533E-1,-8.077652435E0,-3.223097534E0,8.736718288E0
1.160130033E1,-8.496331787E-1,-8.033344574E0,-3.068768463E0,8.641402749E0
1.161129033E1,-7.662565613E-1,-7.995623016E0,-2.904410248E0,8.541237347E0
1.162128133E1,-5.725593567E-1,-7.991132355E0,-2.800675964E0,8.487037551E0
1.163127233E1,-2.647993469E-1,-8.185128937E0,-2.732567596E0,8.633271690E0
1.164126333E1,-9.071136475E-2,-8.445587311E0,-2.742147675E0,8.880064608E0
1.165125433E1,1.493893433E-1,-8.598120117E0,-2.850971375E0,9.059692296E0
1.166124533E1,3.519181824E-1,-8.718769226E0,-3.036735077E0,9.239185200E0
1.167123633E1,4.387376404E-1,-8.715476074E0,-3.122057648E0,9.268185252E0
1.168122633E1,4.019142151E-1,-8.642427979E0,-3.278332672E0,9.252057150E0
1.169121733E1,3.215313721E-1,-8.591683502E0,-3.371588745E0,9.235151244E0
1.170120833E1,2.392025757E-1,-8.617729340E0,-3.404370575E0,9.268884283E0
1.171119933E1,5.044509888E-2,-8.578810272E0,-3.530109100E0,9.276863729E0
1.172119033E1,-7.110214233E-2,-8.433911591E0,-3.503763885E0,9.133032443E0
1.173118133E1,-2.321672058E-1,-8.297395477E0,-3.464246063E0,8.994535792E0
1.174117233E1,-5.554948425E-1,-8.180338898E0,-3.498973846E0,8.914557587E0
1.175116233E1,-8.539741516E-1,-8.080047455E0,-3.623963928E0,8.896603469E0
1.176115333E1,-1.142723694E0,-7.999814301E0,-3.595523071E0,8.844808219E0
1.177114433E1,-1.426383820E0,-8.030949554E0,-3.449875946E0,8.856204920E0
1.178113533E1,-1.556463318E0,-8.181536407E0,-3.340303802E0,8.973168088E0
1.179112633E1,-1.633103943E0,-8.380173340E0,-3.378175049E0,9.181851684E0
1.180111733E1,-1.687590637E0,-8.631051636E0,-3.646417236E0,9.520471268E0
1.181110833E1,-1.851200409E0,-8.829987946E0,-4.097129974E0,9.908688314E0
1.182109833E1,-2.183359680E0,-8.844807129E0,-4.548740845E0,1.018276563E1
1.183108933E1,-2.556683350E0,-8.738228760E0,-4.930746460E0,1.035401044E1
1.184108033E1,-2.805466003E0,-8.725804596E0,-5.084177399E0,1.048137229E1
1.185107133E1,-2.850372620E0,-8.823251953E0,-4.941973114E0,1.050702134E1
1.186106233E1,-2.727627869E0,-8.813821564E0,-4.470753021E0,1.025236738E1
1.187105333E1,-2.402054901E0,-8.819060669E0,-3.759881287E0,9.883441006E0
1.188104433E1,-2.190095673E0,-9.038504333E0,-3.423381042E0,9.910127012E0
1.189103433E1,-1.945953369E0,-9.211095428E0,-3.402873688E0,1.001052261E1
1.190102533E1,-1.911974030E0,-9.389374695E0,-3.650758209E0,1.025397666E1
1.191101633E1,-1.986369324E0,-9.767189026E0,-4.216282196E0,1.082223083E1
1.192100733E1,-2.136507111E0,-1.026655060E1,-4.618046722E0,1.145831922E1
1.193099833E1,-2.083966370E0,-1.070633606E1,-4.747377777E0,1.189563548E1
1.194098933E1,-1.750609589E0,-1.099343903E1,-4.557273102E0,1.202867714E1
1.195098033E1,-1.068777466E0,-1.138607254E1,-4.315675507E0,1.222333785E1
1.196097033E1,-1.728904724E-1,-1.185100571E1,-4.306394806E0,1.261036334E1
1.197096133E1,6.170169067E-1,-1.221759338E1,-4.649631042E0,1.308699227E1
1.198095233E1,1.089135132E0,-1.237925720E1,-5.033432922E0,1.340774669E1
1.199094333E1,1.327140198E0,-1.194680649E1,-4.933141479E0,1.299320481E1
1.200093433E1,1.475032654E0,-1.057655594E1,-4.213138733E0,1.147997364E1
1.201092533E1,1.302291870E0,-9.079668732E0,-3.612138519E0,9.858189138E0
1.202091633E1,8.628057861E-1,-8.446186066E0,-2.933599548E0,8.982677729E0
1.203090733E1,3.273692322E-1,-8.245453491E0,-1.974244537E0,8.484828542E0
1.204089733E1,-3.847000122E-2,-8.421188049E0,-1.414408722E0,8.539229481E0
1.205088833E1,4.565505981E-2,-9.001082153E0,-1.343755646E0,9.100947399E0
1.206087933E1,2.089654541E-1,-9.633816376E0,-1.404828644E0,9.737947835E0
1.207087033E1,4.983137512E-1,-1.021296204E1,-1.554367676E0,1.034258038E1
1.208086133E1,6.481521606E-1,-1.060499680E1,-1.771416321E0,1.077144252E1
1.209085233E1,8.137078857E-1,-1.089165070E1,-2.141147461E0,1.112990062E1
1.210084333E1,8.467890930E-1,-1.099837875E1,-2.395468597E0,1.128803157E1
1.211083333E1,9.809101868E-1,-1.081740509E1,-2.607128448E0,1.117029796E1
1.212082433E1,1.124461670E0,-1.040486298E1,-2.811154175E0,1.083642817E1
1.213081533E1,1.076261902E0,-1.003423370E1,-2.931054840E0,1.050881859E1
1.214080633E1,1.096918945E0,-9.892029419E0,-3.064427490E0,1.041375019E1
1.215079733E1,1.196611633E0,-9.954000549E0,-3.304528198E0,1.055622626E1
1.216078833E1,1.316811676E0,-9.954599304E0,-3.426225128E0,1.060976243E1
1.217077933E1,1.192719727E0,-9.570797424E0,-3.377875671E0,1.021923616E1
1.218076933E1,9.849517822E-1,-9.098529510E0,-3.389401703E0,9.759170721E0
1.219076033E1,8.878038025E-1,-8.738528137E0,-3.440445557E0,9.433278074E0
1.220075133E1,9.587562561E-1,-8.460406494E0,-3.278482361E0,9.123932167E0
1.221074233E1,6.379733276E-1,-8.221203918E0,-3.109633484E0,8.812776194E0
1.222073333E1,4.595443726E-1,-7.993377686E0,-2.889591064E0,8.512050539E0
1.223072433E1,2.504292297E-1,-7.845485229E0,-2.580932922E0,8.262903124E0
1.224071533E1,1.080752563E-1,-7.771239624E0,-2.371219025E0,8.125670755E0
1.225070533E1,-2.799179077E-2,-7.752827911E0,-2.263293457E0,8.076485711E0
1.226069633E1,-2.782713318E-1,-7.715705109E0,-2.124232635E0,8.007615410E0
1.227068733E1,-2.800675964E-1,-7.771988068E0,-2.091001740E0,8.053230697E0
1.228067833E1,-2.188449097E-1,-8.068521423E0,-2.136058044E0,8.349351773E0
1.229066933E1,-2.838098145E-1,-8.166717224E0,-2.118843842E0,8.441878787E0
1.230066033E1,-3.606001282E-1,-7.920329590E0,-2.121089172E0,8.207354783E0
1.231065133E1,-4.031117249E-1,-7.582482147E0,-2.024539948E0,7.858453828E0
1.232064133E1,-4.061054993E-1,-7.505691833E0,-2.044149170E0,7.789664781E0
1.233063233E1,-4.279600525E-1,-7.512278137E0,-2.022743683E0,7.791595769E0
1.234062333E1,-4.911286926E-1,-7.425009613E0,-1.953737183E0,7.693442931E0
1.235061433E1,-4.679269409E-1,-7.490124207E0,-2.113904114E0,7.796762588E0
1.236060533E1,-6.587800598E-1,-7.381749573E0,-2.180814972E0,7.725294290E0
1.237059633E1,-7.475454712E-1,-7.178172913E0,-2.400408325E0,7.605718291E0
1.238058733E1,-7.752378845E-1,-7.392078094E0,-2.605481873E0,7.876061714E0
1.239057733E1,-8.253836060E-1,-7.816295929E0,-2.820584564E0,8.350535158E0
1.240056833E1,-8.807684326E-1,-8.234526215E0,-3.026406555E0,8.817160067E0
1.241055933E1,-9.780661011E-1,-8.594228210E0,-3.212170258E0,9.226885151E0
1.242055033E1,-1.010398865E0,-8.876541138E0,-3.441194000E0,9.573698584E0
1.243054133E1,-9.842033386E-1,-9.175020447E0,-3.665727081E0,9.929109298E0
1.244053233E1,-9.804611206E-1,-9.567204895E0,-3.841461639E0,1.035613543E1
1.245052333E1,-1.007704468E0,-1.005010071E1,-4.011208649E0,1.086783269E1
1.246051333E1,-1.153351593E0,-1.049377808E1,-4.173171844E0,1.135187039E1
1.247050433E1,-1.417851562E0,-1.086949677E1,-4.268074493E0,1.176319357E1
1.248049533E1,-1.791175232E0,-1.110166397E1,-4.298311615E0,1.203871814E1
1.249048650E1,-2.214045868E0,-1.116138977E1,-4.186344452E0,1.212452476E1
1.250047750E1,-2.571053467E0,-1.107442062E1,-4.087998962E0,1.208159110E1
1.251046850E1,-2.850372620E0,-1.104178848E1,-4.119134216E0,1.212489108E1
1.252045950E1,-3.106490021E0,-1.112890732E1,-4.218527527E0,1.230035905E1
1.253044950E1,-3.389401703E0,-1.139355698E1,-4.465214539E0,1.269800478E1
1.254044050E1,-3.560944977E0,-1.165132095E1,-4.659959564E0,1.304411102E1
1.255043150E1,-3.653901672E0,-1.181044006E1,-4.916376343E0,1.330444468E1
1.256042250E1,-3.541036377E0,-1.179651901E1,-5.022954712E0,1.330138615E1
1.257041350E1,-3.224893799E0,-1.185654419E1,-5.020260315E0,1.327330380E1
1.258040450E1,-2.770289154E0,-1.239766891E1,-5.029391327E0,1.366277694E1
1.259039550E1,-2.213896179E0,-1.339863739E1,-4.914280701E0,1.444212502E1
1.260038550E1,-1.497036896E0,-1.402209091E1,-4.484973450E0,1.479780862E1
1.261037650E1,-1.013542328E0,-1.290750870E1,-3.403622131E0,1.338714654E1
1.262036750E1,-8.102650452E-1,-1.084000809E1,-2.538121948E0,1.116263266E1
1.263035850E1,-5.432203674E-1,-9.456884308E0,-2.233355713E0,9.732195380E0
1.264034950E1,-5.957611084E-2,-8.500822449E0,-1.991009674E0,8.731073882E0
1.265034050E1,5.429209900E-1,-7.871231689E0,-1.865720215E0,8.107525111E0
1.266033150E1,1.165177002E0,-7.731721802E0,-2.054178314E0,8.084355757E0
1.267032150E1,1.593586121E0,-7.963439941E0,-2.470911713E0,8.488892573E0
1.268031250E1,2.106120300E0,-8.389753418E0,-2.683320007E0,9.056705328E0
1.269030350E1,2.792143707E0,-8.486751709E0,-2.731370087E0,9.342451691E0
1.270029450E1,3.704346771E0,-8.761729889E0,-2.344125366E0,9.797194465E0
1.271028550E1,4.917274475E0,-9.322314148E0,-2.154469757E0,1.075764237E1
1.272027650E1,4.656965790E0,-1.003168900E1,-2.545007629E0,1.134897257E1
1.273026750E1,3.951033783E0,-1.015877472E1,-2.864593048E0,1.127019366E1
1.274025750E1,3.161425781E0,-9.764195251E0,-2.648741913E0,1.059952620E1
1.275024850E1,1.985620880E0,-9.185199280E0,-2.439477081E0,9.708842594E0
1.276023950E1,1.247505798E0,-8.760532379E0,-2.413281555E0,9.172084068E0
1.277023050E1,4.647834778E-1,-8.787925415E0,-2.619253235E0,9.181728829E0
1.278022150E1,-3.180885315E-1,-9.060658264E0,-3.062930603E0,9.569652678E0
1.279021250E1,-7.162605286E-1,-9.251361694E0,-3.944297791E0,1.008256948E1
1.280020350E1,-8.229885864E-1,-9.178163910E0,-4.935985565E0,1.045370539E1
1.281019350E1,-1.039288788E0,-8.867559814E0,-5.398823090E0,1.043364888E1
1.282018450E1,-8.454418945E-1,-8.482111359E0,-5.214256897E0,9.992470169E0
1.283017550E1,-7.622149658E-1,-8.213569794E0,-4.539310455E0,9.415361906E0
1.284016650E1,-4.819976807E-1,-7.932154999E0,-4.033212891E0,8.911689565E0
1.285015750E1,2.888992310E-2,-7.374265137E0,-3.366199951E0,8.106289104E0
1.286014850E1,2.100132751E-1,-7.035220184E0,-2.622546387E0,7.511070374E0
1.287013950E1,3.297642517E-1,-6.864724731E0,-2.280956726E0,7.241267409E0
1.288012950E1,4.441264343E-1,-6.714586945E0,-2.098186798E0,7.048781027E0
1.289012050E1,3.870950317E-1,-6.717431030E0,-2.022444305E0,7.025952119E0
1.290011150E1,3.329077148E-1,-6.990014191E0,-2.045047302E0,7.290634019E0
1.291010250E1,1.083746338E-1,-7.279961243E0,-2.092648315E0,7.575536795E0
1.292009350E1,1.691482544E-2,-7.460036774E0,-2.193388824E0,7.775820813E0
1.293008450E1,-1.248403931E-1,-7.500752106E0,-2.228565674E0,7.825814478E0
1.294007450E1,-3.662882996E-1,-7.531887360E0,-2.174228668E0,7.847978378E0
1.295006550E1,-6.321354675E-1,-7.685318298E0,-2.065404968E0,7.983082755E0
1.296005650E1,-8.472381592E-1,-7.878117371E0,-2.015408936E0,8.175843625E0
1.297004750E1,-1.153201904E0,-7.937992859E0,-2.075583801E0,8.285508637E0
1.298003850E1,-1.409169617E0,-7.856113129E0,-2.243534546E0,8.290821416E0
1.299002950E1,-1.759740601E0,-7.770341492E0,-2.340233459E0,8.303709203E0
1.300002050E1,-2.030228119E0,-7.827522583E0,-2.450404358E0,8.449640082E0
1.301001050E1,-2.187850342E0,-7.928412781E0,-2.683320007E0,8.651394373E0
1.302000150E1,-2.520608368E0,-8.034093018E0,-3.113824768E0,8.977528716E0
1.302999250E1,-2.846929779E0,-8.358169098E0,-3.739224243E0,9.588837144E0
1.303998350E1,-3.088227997E0,-9.026828613E0,-4.101620636E0,1.038480037E1
1.304997450E1,-2.953059082E0,-9.729168091E0,-4.199367371E0,1.100054344E1
1.305996550E1,-2.672692108E0,-1.025173141E1,-4.469705200E0,1.149867578E1
1.306995650E1,-2.215093689E0,-1.056862244E1,-4.797373810E0,1.181597291E1
1.307994650E1,-1.542542267E0,-1.056428146E1,-4.978946228E0,1.178021159E1
1.308993750E1,-1.243763580E0,-1.018631744E1,-4.820276184E0,1.133768378E1
1.309992850E1,-1.518891449E0,-9.635762329E0,-4.397555237E0,1.070016070E1
1.310991950E1,-1.992955627E0,-9.148974609E0,-4.030668182E0,1.019420887E1
1.311991050E1,-2.421813812E0,-9.210197296E0,-3.645668793E0,1.019724558E1
1.312990150E1,-2.814447327E0,-1.036444702E1,-3.486399994E0,1.129149506E1
1.313989250E1,-2.585273895E0,-1.175505524E1,-3.768862610E0,1.261226745E1
1.314988250E1,-1.667981415E0,-1.289014481E1,-4.771926727E0,1.384591203E1
1.315987350E1,7.409591675E-2,-1.414872757E1,-5.612877960E0,1.522157617E1
1.316986450E1,1.759291534E0,-1.482247650E1,-5.886209564E0,1.604519802E1
1.317985550E1,2.948718109E0,-1.405636963E1,-5.748046875E0,1.546985806E1
1.318984650E1,3.162323914E0,-1.164623154E1,-4.679119720E0,1.294330572E1
1.319983750E1,2.427352295E0,-9.239685974E0,-3.914060669E0,1.032393854E1
1.320982850E1,1.989662476E0,-7.990982666E0,-3.170856171E0,8.824335079E0
1.321981850E1,1.231040039E0,-8.309520264E0,-2.575693817E0,8.786227019E0
1.322980950E1,9.346563721E-1,-9.660910034E0,-2.552641754E0,1.003607220E1
1.323980050E1,1.230441284E0,-1.101858673E1,-2.779120789E0,1.143008100E1
1.324979150E1,9.892927551E-1,-1.192629913E1,-2.586770782E0,1.224363893E1
1.325978250E1,9.283694458E-1,-1.248104553E1,-2.353555756E0,1.273489663E1
1.326977350E1,9.153465271E-1,-1.272473877E1,-2.133663025E0,1.293481171E1
1.327976450E1,1.025218048E0,-1.264675095E1,-1.985920258E0,1.284271236E1
1.328975450E1,9.969268799E-1,-1.224274109E1,-2.136207733E0,1.246763635E1
1.329974550E1,8.812174988E-1,-1.148591492E1,-2.236050110E0,1.173467962E1
1.330973650E1,7.357200623E-1,-1.078432388E1,-2.342778168E0,1.106035873E1
1.331972750E1,7.039860535E-1,-1.014859589E1,-2.599644012E0,1.049989256E1
1.332971850E1,6.819818115E-1,-9.495354309E0,-2.713108063E0,9.898879129E0
1.333970950E1,6.876699829E-1,-8.856033783E0,-2.832409973E0,9.323345463E0
1.334970050E1,6.132746887E-1,-8.224347382E0,-2.670446777E0,8.668753180E0
1.335969050E1,6.610253906E-1,-7.725434875E0,-2.494562531E0,8.145068496E0
1.336968150E1,7.794291687E-1,-7.359296265E0,-2.533631287E0,7.822150525E0
1.337967250E1,6.774911499E-1,-7.089557190E0,-2.615660706E0,7.586995211E0
1.338966350E1,6.301895142E-1,-6.790030060E0,-2.804867249E0,7.373528824E0
1.339965450E1,7.021897888E-1,-6.812782745E0,-2.959346008E0,7.460885204E0
1.340964550E1,7.719447327E-1,-6.816674652E0,-2.990032196E0,7.483531554E0
1.341963650E1,7.406597900E-1,-6.689588928E0,-2.876717834E0,7.319472826E0
1.342962650E1,7.310797119E-1,-6.610553284E0,-2.801424408E0,7.216777049E0
1.343961750E1,8.448431396E-1,-6.547684021E0,-2.688858490E0,7.128526212E0
1.344960850E1,9.253756714E-1,-6.552324371E0,-2.607278137E0,7.112466104E0
1.345959950E1,7.795788574E-1,-6.659950562E0,-2.557731171E0,7.176675652E0
1.346959050E1,5.848338318E-1,-6.555916901E0,-2.463726654E0,7.027946076E0
1.347958150E1,2.230361938E-1,-6.423442383E0,-2.499202881E0,6.896112835E0
1.348957250E1,-1.525328064E-1,-6.416706390E0,-2.480791168E0,6.881258023E0
1.349956237E1,-4.959187317E-1,-6.391408997E0,-2.462978210E0,6.867481781E0
1.350955337E1,-8.131091309E-1,-6.230942688E0,-2.445764008E0,6.742963356E0
1.351954437E1,-1.062640228E0,-6.181096344E0,-2.407892761E0,6.718117580E0
1.352953537E1,-1.153351593E0,-6.298152924E0,-2.455493774E0,6.857579735E0
1.353952638E1,-1.247206421E0,-6.502627716E0,-2.542313232E0,7.092464145E0
1.354951737E1,-1.369202728E0,-6.924300842E0,-2.754871216E0,7.576936959E0
1.355950838E1,-1.467997284E0,-7.527845764E0,-3.050207062E0,8.253922764E0
1.356949837E1,-1.548679504E0,-8.140072632E0,-3.290008392E0,8.915343285E0
1.357948937E1,-1.567839661E0,-8.699758759E0,-3.543132019E0,9.523534436E0
1.358948037E1,-1.600771179E0,-9.339678040E0,-3.735631714E0,1.018562706E1
1.359947137E1,-1.666484528E0,-1.005309448E1,-3.887266388E0,1.090654479E1
1.360946237E1,-1.808539124E0,-1.067564987E1,-3.947890320E0,1.152502286E1
1.361945337E1,-2.057172089E0,-1.110166397E1,-3.980522461E0,1.197177760E1
1.362944337E1,-2.355801086E0,-1.149250122E1,-4.034410400E0,1.240579906E1
1.363943437E1,-2.841540985E0,-1.177855637E1,-4.103267212E0,1.279240193E1
1.364942537E1,-3.454366608E0,-1.175580368E1,-4.234843597E0,1.296400668E1
1.365941637E1,-4.009113007E0,-1.166314636E1,-4.582869873E0,1.315692466E1
1.366940737E1,-4.522096252E0,-1.189860672E1,-5.029091949E0,1.368641524E1
1.367939837E1,-4.947361908E0,-1.249840942E1,-5.546565857E0,1.454135553E1
1.368938937E1,-5.354515228E0,-1.326182190E1,-6.206842804E0,1.559075531E1
1.369937937E1,-5.674998779E0,-1.398900970E1,-6.662794647E0,1.650123741E1
1.370937037E1,-5.204078064E0,-1.481020203E1,-6.591991882E0,1.702582948E1
1.371936137E1,-4.487967224E0,-1.590801910E1,-6.349346466E0,1.770652767E1
1.372935237E1,-3.934717712E0,-1.609542938E1,-5.623206482E0,1.749757988E1
1.373934337E1,-3.201392670E0,-1.416773804E1,-4.082909546E0,1.508787150E1
1.374933437E1,-2.577639771E0,-1.100706070E1,-2.835254059E0,1.165496794E1
1.375932537E1,-1.930685120E0,-8.683143311E0,-2.475701752E0,9.233288794E0
1.376931537E1,-9.192384338E-1,-7.332202606E0,-2.045496368E0,7.667480013E0
1.377930637E1,-2.215393066E-1,-6.553521881E0,-1.845212860E0,6.811940928E0
1.378929737E1,3.884422302E-1,-6.343658295E0,-1.914818115E0,6.637726745E0
1.379928837E1,1.146615601E0,-6.962172089E0,-2.184557190E0,7.386396797E0
1.380927938E1,1.918710022E0,-7.989785156E0,-2.716850281E0,8.654443393E0
1.381927037E1,2.531835022E0,-9.109157410E0,-2.986289978E0,9.914880994E0
1.382926138E1,3.000360718E0,-1.007255402E1,-3.286415863E0,1.101176816E1
1.383925137E1,3.917054443E0,-1.113264954E1,-3.673810272E0,1.236026226E1
1.384924237E1,5.252427521E0,-1.226758942E1,-3.628155212E0,1.382914514E1
1.385923337E1,4.986430664E0,-1.280167877E1,-3.254981232E0,1.411886585E1
1.386922437E1,3.793261871E0,-1.193677734E1,-3.129991150E0,1.291016396E1
1.387921537E1,3.993395691E0,-9.835297394E0,-2.817141724E0,1.098255760E1
1.388920637E1,3.653452606E0,-8.400980072E0,-2.455493774E0,9.484388847E0
1.389919637E1,3.071013794E0,-7.775730286E0,-2.075134735E0,8.613901054E0
1.390918737E1,2.519710236E0,-7.361242218E0,-1.773811340E0,7.980177525E0
1.391917837E1,1.934577026E0,-7.134314117E0,-1.972298584E0,7.650554745E0
1.392916937E1,1.645528107E0,-6.752458191E0,-2.294129333E0,7.318912745E0
1.393916037E1,9.443861389E-1,-6.475084991E0,-2.646795959E0,7.058620239E0
1.394915137E1,4.414320374E-1,-6.492299194E0,-3.030148773E0,7.178204000E0
1.395914237E1,1.404080200E-1,-6.726562042E0,-3.108286285E0,7.411328825E0
1.396913237E1,-1.679507446E-1,-6.986271973E0,-3.228037262E0,7.697819697E0
1.397912337E1,-5.322930908E-1,-6.978488159E0,-4.318968658E0,8.224118384E0
1.398911437E1,-4.646337891E-1,-6.667135620E0,-4.565056915E0,8.093597876E0
1.399910537E1,-4.486170959E-1,-6.490951996E0,-3.651955719E0,7.461266359E0
1.400909637E1,-5.954617310E-1,-6.331832886E0,-3.019221497E0,7.040055455E0
1.401908737E1,-6.752458191E-1,-6.234834595E0,-2.524500275E0,6.760341780E0
1.402907837E1,-6.137237549E-1,-6.347400513E0,-2.079326019E0,6.707439661E0
1.403906837E1,-6.149212646E-1,-6.611601105E0,-1.795216827E0,6.878531877E0
1.404905937E1,-6.556365967E-1,-6.880442047E0,-1.678459625E0,7.112493854E0
1.405905037E1,-7.714956665E-1,-7.138056335E0,-1.590592346E0,7.353709120E0
1.406904137E1,-1.236428833E0,-7.358547821E0,-1.686991882E0,7.650027706E0
1.407903238E1,-1.208137665E0,-7.514373779E0,-1.907034302E0,7.846157642E0
1.408902337E1,-1.417103119E0,-7.542066193E0,-1.849254456E0,7.893711785E0
1.409901338E1,-1.656904449E0,-7.590864716E0,-1.923500061E0,8.004149672E0
1.410900437E1,-1.811083832E0,-7.741002502E0,-1.964065704E0,8.189059682E0
1.411899537E1,-1.715283051E0,-8.036787415E0,-2.063908081E0,8.473007993E0
1.412898637E1,-1.659748535E0,-8.447084198E0,-2.602787476E0,8.993469814E0
1.413897737E1,-1.814676361E0,-8.833430786E0,-3.524869995E0,9.682316780E0
1.414896837E1,-2.049388275E0,-9.376202087E0,-4.516108704E0,1.060699749E1
1.415895937E1,-2.098336487E0,-9.876761169E0,-5.570066986E0,1.153165528E1
1.416894937E1,-1.997146912E0,-1.014215927E1,-6.685697021E0,1.231058630E1
1.417894037E1,-1.629810791E0,-1.060514648E1,-6.841672668E0,1.272532515E1
1.418893137E1,-1.438807983E0,-1.079135925E1,-6.347699890E0,1.260225761E1
1.419892237E1,-1.629810791E0,-1.048584457E1,-5.535638580E0,1.196881423E1
1.420891337E1,-1.799707489E0,-1.047192352E1,-4.295018463E0,1.146068553E1
1.421890437E1,-1.875599670E0,-1.133712433E1,-3.769760742E0,1.209377353E1
1.422889537E1,-1.559906158E0,-1.260094620E1,-3.946243744E0,1.329623977E1
1.423888537E1,-1.109343109E0,-1.398032776E1,-4.662504272E0,1.477901054E1
1.424887637E1,-3.900888062E-1,-1.504162079E1,-5.763913879E0,1.611289013E1
1.425886737E1,5.710624695E-1,-1.565684143E1,-6.589447174E0,1.699657642E1
1.426885837E1,1.286873932E0,-1.540521469E1,-6.527476044E0,1.678048354E1
1.427884937E1,1.509161682E0,-1.393018204E1,-5.933660889E0,1.521630284E1
1.428884037E1,6.927593994E-1,-1.192884384E1,-4.758754120E0,1.286168619E1
1.429883037E1,-2.433938599E-1,-9.937235413E0,-3.974684601E0,1.070541946E1
1.430882137E1,-3.583547974E-1,-8.696465607E0,-3.634292450E0,9.432126686E0
1.431881237E1,-3.257226562E-1,-9.093739471E0,-2.444117432E0,9.422096521E0
1.432880337E1,-4.616400146E-1,-9.894574127E0,-1.248852997E0,9.983753927E0
1.433879437E1,-3.620970154E-1,-1.030277527E1,-9.017248535E-1,1.034849748E1
1.434878538E1,5.721102905E-1,-1.048135391E1,-6.972500610E-1,1.052008782E1
1.435877637E1,1.070573730E0,-1.070349197E1,-7.381150818E-1,1.078219284E1
1.436876638E1,1.312470703E0,-1.086171295E1,-1.334624634E0,1.102182428E1
1.437875737E1,1.651066589E0,-1.086320984E1,-2.060614929E0,1.117951174E1
1.438874838E1,1.937271423E0,-1.082788330E1,-2.401306458E0,1.125887872E1
1.439873937E1,1.907633057E0,-1.050605255E1,-2.263443146E0,1.091509867E1
1.440873037E1,1.834884338E0,-9.945617981E0,-2.252964935E0,1.036136905E1
1.441872137E1,1.762135620E0,-9.395960999E0,-2.456092529E0,9.870237867E0
1.442871237E1,1.606159973E0,-8.934470673E0,-2.516866150E0,9.420144971E0
1.443870237E1,1.512454834E0,-8.657546539E0,-2.444716187E0,9.122349968E0
1.444869337E1,1.403481445E0,-8.381670227E0,-2.342179413E0,8.815211873E0
1.445868437E1,1.179846497E0,-8.170609131E0,-2.337389374E0,8.579876480E0
1.446867537E1,8.692424011E-1,-7.983947296E0,-2.339335327E0,8.364896087E0
1.447866637E1,8.153544617E-1,-7.657027130E0,-2.397863617E0,8.065024321E0
1.448865737E1,9.916877747E-1,-7.229665833E0,-2.498903503E0,7.713367061E0
1.449864733E1,8.086184692E-1,-6.935677185E0,-2.757565613E0,7.507439640E0
1.450863833E1,4.279600525E-1,-6.684649200E0,-3.062331848E0,7.365158592E0
1.451862933E1,2.384541321E-1,-6.629414062E0,-3.165766754E0,7.350378924E0
1.452862033E1,6.391708374E-2,-6.764882355E0,-2.983595581E0,7.393886749E0
1.453861133E1,-8.173004150E-2,-6.541846161E0,-2.736010437E0,7.091416227E0
1.454860233E1,-2.929408264E-1,-6.214626617E0,-2.754122772E0,6.803865855E0
1.455859333E1,-4.071533203E-1,-6.139333191E0,-2.627037048E0,6.690180080E0
1.456858333E1,-5.001100159E-1,-6.239175568E0,-2.630180511E0,6.789349845E0
1.457857433E1,-7.487429810E-1,-6.449039154E0,-2.840493164E0,7.086545243E0
1.458856533E1,-8.940907288E-1,-6.794520721E0,-2.849175110E0,7.421772623E0
1.459855633E1,-1.081501007E0,-7.109465790E0,-2.709515533E0,7.684765622E0
1.460854733E1,-1.420246582E0,-7.172784119E0,-2.621049500E0,7.767614360E0
1.461853833E1,-1.713187408E0,-7.145241394E0,-2.709814911E0,7.831512148E0
1.462852933E1,-1.971999207E0,-7.105424194E0,-2.833906860E0,7.899801386E0
1.463851933E1,-2.222727814E0,-7.087162170E0,-2.879561920E0,7.966195040E0
1.464851033E1,-2.372566223E0,-7.325765991E0,-2.935096436E0,8.240795406E0
1.465850133E1,-2.343227234E0,-7.660170593E0,-2.993924103E0,8.551754728E0
1.466849233E1,-2.230661316E0,-8.025411072E0,-2.992726593E0,8.850959566E0
1.467848333E1,-2.070195007E0,-8.511899414E0,-3.081641693E0,9.286261601E0
1.468847433E1,-1.814376984E0,-8.970246277E0,-3.392245789E0,9.760359296E0
1.469846433E1,-1.567689972E0,-9.318422241E0,-3.857628021E0,1.020646554E1
1.470845533E1,-1.393003235E0,-9.691745911E0,-4.083807678E0,1.060885865E1
1.471844633E1,-1.373394012E0,-1.003153931E1,-4.028572540E0,1.089712754E1
1.472843733E1,-1.680405579E0,-1.028286667E1,-3.978277130E0,1.115292781E1
1.473842833E1,-2.347568207E0,-1.044752426E1,-3.801494751E0,1.136279904E1
1.474841933E1,-2.943179626E0,-1.064930466E1,-3.516786804E0,1.159473093E1
1.475841033E1,-3.529210968E0,-1.123937759E1,-3.651506653E0,1.233338719E1
1.476840033E1,-4.058510284E0,-1.214244965E1,-4.075125732E0,1.343567039E1
1.477839133E1,-4.420906677E0,-1.331810486E1,-4.471950531E0,1.472802344E1
1.478838233E1,-4.577181702E0,-1.492411514E1,-5.125790863E0,1.643026284E1
1.479837333E1,-4.038451996E0,-1.665077454E1,-5.679339752E0,1.805027111E1
1.480836433E1,-3.165018311E0,-1.738933868E1,-5.210814056E0,1.842712739E1
1.481835533E1,-2.183509369E0,-1.607567047E1,-4.052822113E0,1.672184982E1
1.482834633E1,-1.687890015E0,-1.382764526E1,-3.467838593E0,1.435543976E1
1.483833633E1,-1.283431091E0,-1.190953400E1,-3.348536682E0,1.243772058E1
1.484832733E1,-8.550219727E-1,-1.060978683E1,-3.362008667E0,1.116251502E1
1.485831833E1,-1.163081360E-1,-9.709708557E0,-3.335663452E0,1.026735694E1
1.486830933E1,9.144483948E-1,-9.151669006E0,-3.023113403E0,9.681346813E0
1.487830033E1,2.110461273E0,-9.204658813E0,-3.243305511E0,9.984929709E0
1.488829133E1,2.939736786E0,-9.481732635E0,-3.726201324E0,1.060329583E1
1.489828133E1,3.295397186E0,-9.801767120E0,-4.076772308E0,1.111550061E1
1.490827233E1,3.688928833E0,-1.010817993E1,-4.042343903E0,1.149452225E1
1.491826333E1,4.195924530E0,-1.047491730E1,-3.910318451E0,1.194237269E1
1.492825433E1,5.144052887E0,-1.076097244E1,-3.748804321E0,1.250253342E1
1.493824533E1,4.913681946E0,-1.103550156E1,-3.346890106E0,1.253508030E1
1.494823633E1,4.254303131E0,-1.064571213E1,-2.910098419E0,1.182788885E1
1.495822733E1,4.340074768E0,-9.845176849E0,-2.202819214E0,1.098253926E1
1.496821733E1,3.733087006E0,-9.161398773E0,-1.999392242E0,1.009280612E1
1.497820833E1,3.150199127E0,-8.624764709E0,-2.158960419E0,9.432466853E0
1.498819933E1,2.607577515E0,-8.118218079E0,-2.350861359E0,8.844855815E0
1.499819033E1,2.332599335E0,-7.674241333E0,-2.497855682E0,8.400850118E0
1.500818133E1,1.846110992E0,-7.551197205E0,-2.828218689E0,8.272093204E0
1.501817233E1,8.990304565E-1,-7.197183380E0,-3.138673096E0,7.903098960E0
1.502816233E1,3.110531616E-1,-6.647676086E0,-3.360960846E0,7.455495237E0
1.503815333E1,3.487747192E-2,-6.377188568E0,-3.401376801E0,7.227663150E0
1.504814433E1,3.278182983E-2,-6.413562927E0,-3.304228821E0,7.214762101E0
1.505813533E1,-3.412902832E-1,-6.431824951E0,-3.550616455E0,7.354707912E0
1.506812633E1,-2.495310974E-1,-6.243067474E0,-3.971391449E0,7.403384854E0
1.507811733E1,1.945953369E-2,-6.078709259E0,-3.862717438E0,7.202199035E0
1.508810833E1,-8.397537231E-2,-5.937552795E0,-3.323388977E0,6.804887902E0
1.509809833E1,-1.651066589E-1,-5.958359528E0,-2.674188995E0,6.533038746E0
1.510808933E1,-2.017803955E-1,-6.131699066E0,-2.238145752E0,6.530524112E0
1.511808033E1,-3.616479492E-1,-6.373446350E0,-2.099533997E0,6.720093051E0
1.512807133E1,-4.583468628E-1,-6.566993866E0,-1.931882629E0,6.860587495E0
1.513806233E1,-6.969506836E-1,-6.738986206E0,-1.935175781E0,7.045891047E0
1.514805333E1,-8.949888611E-1,-6.816075897E0,-2.086211700E0,7.184161396E0
1.515804433E1,-1.205742645E0,-6.804250488E0,-2.255359955E0,7.268995017E0
1.516803433E1,-1.600621490E0,-6.805148621E0,-2.534080353E0,7.435966658E0
1.517802533E1,-1.720971222E0,-6.827152863E0,-2.827320557E0,7.587193136E0
1.518801633E1,-2.064656525E0,-7.001540222E0,-2.952160950E0,7.873984145E0
1.519800733E1,-2.356848907E0,-7.365433502E0,-3.292553101E0,8.405073073E0
1.520799833E1,-2.553240509E0,-7.761958923E0,-3.667972412E0,8.956621296E0
1.521798933E1,-2.731220398E0,-8.332722015E0,-4.042942657E0,9.656045069E0
1.522797933E1,-2.908601532E0,-9.160350952E0,-4.447251892E0,1.059009168E1
1.523797033E1,-3.019221497E0,-1.006746460E1,-4.689747620E0,1.150926908E1
1.524796133E1,-2.957400055E0,-1.078956299E1,-4.789889374E0,1.216979559E1
1.525795233E1,-2.830164642E0,-1.140343643E1,-4.814887390E0,1.269769014E1
1.526794333E1,-2.941383362E0,-1.158515854E1,-5.167404327E0,1.302189318E1
1.527793433E1,-3.303031311E0,-1.124446701E1,-5.709277496E0,1.303625344E1
1.528792533E1,-3.679648132E0,-1.077309723E1,-6.121969299E0,1.292586331E1
1.529791533E1,-3.700903931E0,-1.072893906E1,-6.126609650E0,1.289737062E1
1.530790633E1,-3.026855621E0,-1.162138321E1,-6.005810852E0,1.342714291E1
1.531789733E1,-2.213746490E0,-1.295316376E1,-5.760770416E0,1.434822639E1
1.532788833E1,-1.216220856E0,-1.347378113E1,-5.467380524E0,1.459158048E1
1.533787933E1,3.270698547E-1,-1.377121262E1,-5.882317657E0,1.497848232E1
1.534787033E1,2.085612946E0,-1.402164185E1,-6.045029297E0,1.541098961E1
1.535786033E1,3.241808624E0,-1.348545685E1,-5.808820496E0,1.503693004E1
1.536785133E1,3.229234772E0,-1.219573883E1,-5.100792847E0,1.360816264E1
1.537784233E1,2.778372345E0,-1.024035507E1,-3.717369690E0,1.124291165E1
1.538783333E1,2.395169220E0,-8.597970428E0,-3.590134277E0,9.620342780E0
1.539782433E1,2.218835907E0,-8.096812592E0,-3.364703064E0,9.044491895E0
1.540781533E1,1.904788971E0,-8.713829498E0,-2.559677124E0,9.279600882E0
1.541780633E1,1.815574493E0,-9.712103577E0,-1.988315277E0,1.007842568E1
1.542779633E1,1.797162781E0,-1.061322968E1,-1.757644958E0,1.090686729E1
1.543778733E1,2.158960419E0,-1.129326553E1,-1.819616089E0,1.164087450E1
1.544777833E1,2.216740265E0,-1.181867294E1,-1.894759827E0,1.217312952E1
1.545776933E1,2.024689636E0,-1.217433334E1,-1.815275116E0,1.247433302E1
1.546776033E1,1.455423431E0,-1.215292786E1,-1.852098541E0,1.237910263E1
1.547775133E1,8.798703003E-1,-1.143936172E1,-1.977986755E0,1.164240525E1
1.548774133E1,5.643264771E-1,-1.072310120E1,-2.126328278E0,1.094644397E1
1.549773258E1,2.360591125E-1,-9.975855103E0,-2.091899872E0,1.019556050E1
1.550772358E1,1.642085266E-1,-9.324709167E0,-2.258802795E0,9.595798850E0
1.551771458E1,1.609153748E-1,-8.743018799E0,-2.674488373E0,9.144351236E0
1.552770558E1,2.083666992E-1,-8.315358124E0,-2.860850830E0,8.796196046E0
1.553769658E1,2.992277527E-1,-8.058043213E0,-2.879262543E0,8.562228125E0
1.554768758E1,3.736230469E-1,-7.934999084E0,-2.922672272E0,8.464385262E0
1.555767758E1,3.234773254E-1,-7.770940247E0,-2.760110321E0,8.252900028E0
1.556766858E1,2.887495422E-1,-7.450007629E0,-2.467768250E0,7.853398634E0
1.557765958E1,4.565505981E-1,-7.266489258E0,-2.467768250E0,7.687664451E0
1.558765058E1,3.070115662E-1,-7.036118317E0,-2.556833038E0,7.492570470E0
1.559764158E1,9.131011963E-3,-6.858886871E0,-2.623145142E0,7.343384977E0
1.560763258E1,-5.927673340E-2,-6.786287842E0,-2.712509308E0,7.308551371E0
1.561762358E1,-7.918533325E-2,-6.801855469E0,-2.861599274E0,7.379719408E0
1.562761358E1,-4.414320374E-1,-6.719376984E0,-3.123853912E0,7.423163245E0
1.563760458E1,-4.716691589E-1,-6.603667603E0,-3.287014618E0,7.391573763E0
1.564759558E1,-5.005590820E-1,-6.396049347E0,-3.274889832E0,7.203118078E0
1.565758658E1,-6.721023560E-1,-6.301146698E0,-3.280727692E0,7.135779248E0
1.566757758E1,-8.217910767E-1,-6.466552734E0,-3.166664886E0,7.247027759E0
1.567756858E1,-9.557624817E-1,-6.607409821E0,-3.038531342E0,7.335122301E0
1.568755858E1,-1.202150116E0,-6.562353516E0,-2.980751495E0,7.307155948E0
1.569754958E1,-1.549877014E0,-6.458319855E0,-2.926713867E0,7.257938286E0
1.570754058E1,-1.760339355E0,-6.238277435E0,-2.865042114E0,7.086844596E0
1.571753158E1,-1.901795197E0,-6.137836304E0,-2.801873474E0,7.010018147E0
1.572752258E1,-1.936373291E0,-6.209537201E0,-2.737806702E0,7.057158019E0
1.573751358E1,-1.869612122E0,-6.525829468E0,-2.695744171E0,7.304035622E0
1.574750358E1,-1.639241180E0,-7.111411743E0,-2.635718994E0,7.759272082E0
1.575749458E1,-1.311572571E0,-8.040379944E0,-2.639910278E0,8.563705887E0
1.576748558E1,-8.761280823E-1,-8.932524719E0,-2.924618225E0,9.439861760E0
1.577747658E1,-5.192701721E-1,-9.630672913E0,-3.378773804E0,1.021937448E1
1.578746758E1,-3.724255371E-1,-1.028256729E1,-3.636088715E0,1.091288376E1
1.579745858E1,-3.897894287E-1,-1.090407486E1,-3.672163696E0,1.151240942E1
1.580744958E1,-5.691165161E-1,-1.140164017E1,-3.893553314E0,1.206155253E1
1.581743958E1,-1.079405365E0,-1.172167465E1,-4.281845856E0,1.252585233E1
1.582743058E1,-2.059866486E0,-1.185549637E1,-4.671335907E0,1.290802941E1
1.583742158E1,-3.182831268E0,-1.203751785E1,-4.962330780E0,1.340361808E1
1.584741258E1,-4.244273987E0,-1.210532684E1,-5.242398376E0,1.385768885E1
1.585740358E1,-5.072052612E0,-1.232072891E1,-6.128705292E0,1.466584833E1
1.586739458E1,-5.829327850E0,-1.284748352E1,-6.909631348E0,1.570929347E1
1.587738458E1,-6.284082184E0,-1.357601852E1,-7.041507111E0,1.653423086E1
1.588737558E1,-5.836662598E0,-1.416624115E1,-6.617289276E0,1.668944385E1
1.589736658E1,-4.994663544E0,-1.474703339E1,-6.170767822E0,1.674813521E1
1.590735758E1,-4.164040833E0,-1.516825745E1,-5.573360138E0,1.668764852E1
1.591734858E1,-3.071013794E0,-1.424258240E1,-4.300257568E0,1.519126375E1
1.592733958E1,-2.304457855E0,-1.183409088E1,-2.614612885E0,1.233662975E1
1.593732958E1,-1.828597412E0,-9.733958130E0,-1.980681152E0,1.010033698E1
1.594732058E1,-1.157991943E0,-8.358917542E0,-1.618135071E0,8.592485607E0
1.595731158E1,-3.576063538E-1,-7.713609467E0,-1.298549652E0,7.830318289E0
1.596730258E1,3.873944092E-1,-7.631580048E0,-1.381477203E0,7.765279629E0
1.597729358E1,9.623487854E-1,-7.994126129E0,-1.989213409E0,8.293921735E0
1.598728458E1,1.378782806E0,-8.614585876E0,-2.425855408E0,9.055214316E0
1.599727558E1,1.999541931E0,-9.229357452E0,-2.631378021E0,9.803231978E0
1.600726558E1,2.859353943E0,-1.008213409E1,-3.108435974E0,1.093104327E1
1.601725658E1,4.027674408E0,-1.109373047E1,-3.425177307E0,1.228921708E1
1.602724758E1,5.181774445E0,-1.198557587E1,-3.312910767E0,1.347145846E1
1.603723858E1,4.057163086E0,-1.173814041E1,-3.009192352E0,1.277887911E1
1.604722958E1,3.978277130E0,-1.048883835E1,-2.766996002E0,1.155416313E1
1.605722058E1,3.523822174E0,-9.121282196E0,-2.619402924E0,1.012306195E1
1.606721158E1,2.705174561E0,-8.254285126E0,-2.639161835E0,9.078346079E0
1.607720158E1,2.266586609E0,-7.840994568E0,-2.553090820E0,8.552010489E0
1.608719258E1,2.081271973E0,-7.826025696E0,-2.388582916E0,8.442967462E0
1.609718358E1,1.503174133E0,-8.001610565E0,-2.678230591E0,8.570777282E0
1.610717458E1,9.412426758E-1,-7.908653870E0,-3.083288269E0,8.540457268E0
1.611716558E1,6.026467896E-1,-7.683072968E0,-3.479963379E0,8.455941018E0
1.612715658E1,4.182302856E-1,-7.433841248E0,-3.885769501E0,8.398578265E0
1.613714658E1,3.619473267E-1,-7.258406067E0,-4.246818695E0,8.417299658E0
1.614713758E1,3.903881836E-1,-7.026687927E0,-4.140988770E0,8.165447578E0
1.615712858E1,3.032693481E-1,-6.759044495E0,-3.795207825E0,7.757593519E0
1.616711958E1,2.056723022E-1,-6.585255890E0,-3.433709564E0,7.429552988E0
1.617711058E1,9.999206543E-2,-6.397246857E0,-3.133883057E0,7.124323741E0
1.618710158E1,-1.818717957E-1,-6.285429382E0,-2.895728302E0,6.922784286E0
1.619709158E1,-3.363505554E-1,-6.353238373E0,-2.757864990E0,6.934161003E0
1.620708258E1,-4.396357727E-1,-6.560557251E0,-2.295476532E0,6.964438496E0
1.621707358E1,-7.098239136E-1,-6.803502045E0,-2.154918823E0,7.171831370E0
1.622706458E1,-9.250762939E-1,-6.805298309E0,-2.287243652E0,7.238738478E0
1.623705558E1,-1.148262177E0,-6.761589203E0,-2.240540771E0,7.215096501E0
1.624704658E1,-1.392703857E0,-6.908284149E0,-2.186802521E0,7.378761358E0
1.625703758E1,-1.533710632E0,-7.060068512E0,-2.138453064E0,7.534574786E0
1.626702758E1,-1.639390869E0,-7.156917114E0,-2.008523254E0,7.612045104E0
1.627701858E1,-1.633103943E0,-7.335346069E0,-1.909728699E0,7.753798691E0
1.628700958E1,-1.702559509E0,-7.629634094E0,-2.016456757E0,8.073173053E0
1.629700058E1,-1.784888306E0,-7.994126129E0,-2.268682251E0,8.499341033E0
1.630699158E1,-1.913321228E0,-8.390651550E0,-2.767594757E0,9.040100237E0
1.631698258E1,-2.418370972E0,-8.901539154E0,-3.590134277E0,9.898231236E0
1.632697258E1,-2.677931213E0,-9.664053497E0,-4.542603607E0,1.100910955E1
1.633696358E1,-2.862198029E0,-1.019185593E1,-5.431904297E0,1.189839019E1
1.634695458E1,-2.854264526E0,-1.044707520E1,-5.897136841E0,1.233144067E1
1.635694558E1,-2.541714478E0,-1.090497299E1,-5.880072327E0,1.264729216E1
1.636693658E1,-2.266436920E0,-1.114193024E1,-5.408253479E0,1.259081218E1
1.637692758E1,-2.213596802E0,-1.101798798E1,-4.890779572E0,1.225625533E1
1.638691858E1,-2.485132141E0,-1.071741302E1,-4.524940338E0,1.189596187E1
1.639690858E1,-2.920127563E0,-1.016536102E1,-4.160298615E0,1.136528901E1
1.640689958E1,-3.353925476E0,-9.682165833E0,-3.863166504E0,1.095067152E1
1.641689058E1,-3.912264404E0,-9.867779846E0,-3.854933624E0,1.129333454E1
1.642688158E1,-3.785627747E0,-1.111977631E1,-4.387077026E0,1.253901301E1
1.643687258E1,-3.226690063E0,-1.190279800E1,-4.446353760E0,1.310946951E1
1.644686358E1,-2.952909393E0,-1.179861465E1,-4.410578156E0,1.293754928E1
1.645685358E1,-1.784588928E0,-1.227537323E1,-4.465364227E0,1.318366502E1
