"Time (s)","Acceleration x (m/s^2)","Acceleration y (m/s^2)","Acceleration z (m/s^2)","Absolute acceleration (m/s^2)"
1.569283335E-2,-1.988165588E0,3.820804596E0,8.414002991E0,9.452343439E0
2.568483341E-2,-2.118245087E0,3.859124908E0,8.557404785E0,9.623356169E0
3.567583335E-2,-2.112107849E0,3.841162262E0,8.574768677E0,9.630274396E0
4.566683341E-2,-2.001936951E0,3.875590668E0,8.628057861E0,9.668057563E0
5.565783335E-2,-1.976340179E0,3.875740356E0,8.826545105E0,9.840486894E0
6.564883341E-2,-1.959874420E0,3.825894012E0,9.062155151E0,1.003001639E1
7.563983335E-2,-1.872605896E0,3.827091522E0,9.211993561E0,1.014958658E1
8.563083340E-2,-1.581012268E0,3.847598877E0,9.105564880E0,1.001074067E1
9.562283335E-2,-1.388213196E0,3.823798370E0,8.808732147E0,9.702697145E0
1.056138334E-1,-1.455872498E0,3.860023041E0,8.581953735E0,9.522041405E0
1.156048334E-1,-1.549577637E0,3.888463898E0,8.422235870E0,9.405073067E0
1.255958334E-1,-1.583407288E0,3.898792419E0,8.351582794E0,9.351828492E0
1.355868333E-1,-1.661395111E0,3.840264130E0,8.542884979E0,9.512557283E0
1.455778334E-1,-1.913770294E0,3.741170197E0,8.869056702E0,9.814226304E0
1.555698334E-1,-2.229763184E0,3.776047668E0,9.196276245E0,1.018832060E1
1.655608334E-1,-1.939067688E0,3.769910431E0,9.258995819E0,1.018337919E1
1.755518334E-1,-1.470841370E0,3.532653809E0,9.063652039E0,9.838333474E0
1.855428334E-1,-1.188378754E0,3.381019135E0,8.796457672E0,9.498484196E0
1.955338334E-1,-1.202748871E0,3.430117035E0,8.628955994E0,9.363289447E0
2.055248334E-1,-1.435664520E0,3.523971863E0,8.553662567E0,9.361872335E0
2.155168334E-1,-1.632804565E0,3.563190308E0,8.623716888E0,9.472637906E0
2.255078334E-1,-1.495989075E0,3.551813965E0,8.757089539E0,9.567652948E0
2.354988334E-1,-1.082249451E0,3.442990265E0,8.965156860E0,9.664340814E0
2.454898334E-1,-7.912545776E-1,3.319497070E0,9.089099121E0,9.708597604E0
2.554808334E-1,-6.737489319E-1,3.302881622E0,9.072783051E0,9.678758026E0
2.654718334E-1,-7.822732544E-1,3.421584778E0,8.870403900E0,9.539562841E0
2.754628333E-1,-1.212628326E0,3.578608246E0,8.420738983E0,9.229612639E0
2.854548334E-1,-1.381327515E0,3.647764435E0,8.014783173E0,8.913529064E0
2.954458334E-1,-1.191821594E0,3.586541748E0,7.972570953E0,8.823015813E0
3.054368334E-1,-7.231462097E-1,3.199596405E0,8.109087067E0,8.747436805E0
3.154278334E-1,-1.386117554E-1,2.571801910E0,8.270451508E0,8.662202169E0
3.254188334E-1,1.639091492E-1,1.919458466E0,7.991282043E0,8.220205332E0
3.354098334E-1,6.092330933E-1,2.279310150E0,7.404202881E0,7.771012806E0
3.454018334E-1,-2.746788025E-1,2.039957886E0,7.292535095E0,7.577462948E0
3.553928334E-1,-1.974244537E0,2.472707977E0,8.142018585E0,8.735238570E0
3.653838334E-1,-2.012265472E0,4.207001495E0,9.272767181E0,1.037941641E1
3.753748334E-1,-1.171463928E0,4.649181976E0,9.735754395E0,1.085228706E1
3.853658334E-1,-1.326092377E0,4.189188538E0,1.028556107E1,1.118483742E1
3.953568334E-1,2.721340942E-1,3.808530121E0,1.003632935E1,1.073810344E1
4.053488334E-1,7.933502197E-1,2.884202271E0,9.379046173E0,9.844517988E0
4.153398334E-1,9.014254761E-1,1.941462708E0,8.882678375E0,9.136948093E0
4.253308334E-1,-7.036866760E-1,3.833528137E-1,9.182205505E0,9.217105417E0
4.353218334E-1,-3.248394928E0,-7.801776123E-1,9.028325500E0,9.626598987E0
4.453128334E-1,-3.362158356E0,-7.310797119E-1,8.838220825E0,9.484341501E0
4.553038334E-1,-3.319347382E0,-6.066883850E-1,8.754095764E0,9.381915076E0
4.652958334E-1,-2.726879425E0,7.150630188E-1,9.753866730E0,1.015308341E1
4.752868334E-1,8.181985474E-1,3.463946686E0,9.991123352E0,1.060617374E1
4.852778334E-1,4.346810760E0,6.489155731E0,9.186696167E0,1.205816289E1
4.952688334E-1,6.383625183E0,7.955656128E0,7.497009888E0,1.265892145E1
5.052598334E-1,8.211773529E0,7.730224915E0,6.548432465E0,1.304114909E1
5.152508334E-1,4.835544434E0,2.928510132E0,5.939199371E0,8.199557960E0
5.252428334E-1,-4.148173828E0,7.207511902E-1,6.828350372E0,8.022044452E0
5.352338334E-1,-4.046984253E0,2.468367004E0,6.757697296E0,8.254537538E0
5.452248334E-1,-2.977907410E0,2.737806702E-1,9.286688232E0,9.756303948E0
5.552158334E-1,-8.313711548E-1,1.591640167E0,8.372988281E0,8.563377206E0
5.652068334E-1,1.298699341E0,2.592908020E0,7.167994080E0,7.732394914E0
5.751978334E-1,-4.596940613E-1,1.218915253E0,8.245752869E0,8.348024520E0
5.851898334E-1,2.586621094E-1,2.458188171E0,9.286089478E0,9.609425215E0
5.951808334E-1,3.996688843E-1,1.829944611E0,9.201515350E0,9.390224557E0
6.051718334E-1,-7.321275330E-1,2.800675964E-1,8.746611328E0,8.781666033E0
6.151629167E-1,2.887495422E-1,7.933502197E-2,1.048030609E1,1.048458326E1
6.251539167E-1,-8.593629456E-1,1.043180695E0,1.066053131E1,1.074586704E1
6.351449167E-1,-5.207670593E-1,1.528471527E0,9.924062805E0,1.005457339E1
6.451359167E-1,-1.033151550E0,1.942061462E0,6.923253021E0,7.264326345E0
6.551279167E-1,-1.299896851E0,2.192640381E0,5.886808319E0,6.414975904E0
6.651189167E-1,-1.252744904E0,2.022593994E0,6.434818726E0,6.860550145E0
6.751099167E-1,-1.042432251E0,8.764274597E-1,8.662186890E0,8.768595771E0
6.851009167E-1,-2.245330811E-2,-9.818083191E-1,9.247170410E0,9.299172669E0
6.950919167E-1,3.353027344E-2,-8.738827515E-1,8.163723450E0,8.210430921E0
7.050839167E-1,-2.484832764E-1,5.713618469E-1,8.648714905E0,8.671128404E0
7.150749167E-1,6.966513062E-1,1.043929138E0,1.013287857E1,1.021030554E1
7.250659167E-1,1.860780487E0,6.779402161E-1,1.172137527E1,1.188750374E1
7.350569167E-1,1.453776855E0,-7.352709961E-1,1.249571503E1,1.260146756E1
7.450479167E-1,2.056573334E0,-2.410587158E0,1.572899139E1,1.604498659E1
7.550389167E-1,1.996697845E0,-1.039438477E0,1.275213181E1,1.294928956E1
7.650309167E-1,1.666933594E0,8.809181213E-1,1.093446167E1,1.109581616E1
7.750219167E-1,3.262166290E0,1.924996948E-1,1.358275452E1,1.397032588E1
7.850129167E-1,2.518961792E0,-6.107299805E-2,1.205084015E1,1.231144373E1
7.950039167E-1,1.086889801E0,7.858657837E-2,8.886270905E0,8.952838426E0
8.049949167E-1,2.184407501E0,3.721261597E-1,9.650880890E0,9.902000604E0
8.149859167E-1,3.278033295E0,1.688937836E0,9.101223907E0,9.819892561E0
8.249779167E-1,4.381239166E0,3.714375916E0,8.830437012E0,1.053415696E1
8.349689167E-1,4.199966125E0,3.848197632E0,9.532327423E0,1.110466598E1
8.449599167E-1,5.267396393E0,2.903212738E0,8.879085846E0,1.072437758E1
8.549509167E-1,5.099745026E0,2.802921295E0,8.590036926E0,1.037557235E1
8.649419167E-1,4.646038513E0,1.712438965E0,8.720266113E0,1.002801886E1
8.749329167E-1,5.814957733E0,7.334747314E-2,8.631051636E0,1.040740917E1
8.849249167E-1,6.877448273E0,-1.362017670E0,8.481662292E0,1.100422565E1
8.949159167E-1,6.813830566E0,-2.636317749E0,8.895401917E0,1.151115257E1
9.049069167E-1,6.035898285E0,-3.507206726E0,9.343120880E0,1.166303884E1
9.148979167E-1,5.957910461E0,-3.301684113E0,1.026176056E1,1.231671810E1
9.248889167E-1,5.516777802E0,-2.929707642E0,1.065424438E1,1.235034200E1
9.348799167E-1,5.180127869E0,-3.104843445E0,9.515562286E0,1.127030182E1
9.448719167E-1,4.656965790E0,-5.649252319E-1,7.303312683E0,8.680140957E0
9.548629167E-1,4.492906952E0,-1.093027039E0,5.157225494E0,6.926607812E0
9.648539167E-1,3.543132019E0,-3.552712097E0,5.628295898E0,7.540110243E0
9.748449167E-1,3.342399445E0,-3.438798981E0,7.285350037E0,8.722000782E0
9.848359167E-1,3.948938141E0,-3.884422302E0,7.297774200E0,9.161897038E0
9.948269167E-1,4.410578156E0,-3.793561249E0,7.465126190E0,9.464270476E0
1.004818917E0,5.948480072E0,-3.493435364E0,7.542215881E0,1.022122919E1
1.014809917E0,6.116730194E0,-2.966381378E0,7.698341217E0,1.027026116E1
1.024800917E0,4.062402191E0,-3.510649567E0,7.343878326E0,9.097269965E0
1.034791917E0,3.182232513E0,-5.765111389E0,7.990234222E0,1.035407920E1
1.044782917E0,3.448079681E0,-6.202651520E0,8.144263916E0,1.080236891E1
1.054773917E0,3.359763336E0,-7.347919922E0,8.170459442E0,1.149070687E1
1.064765917E0,3.566184082E0,-7.625742188E0,7.732021179E0,1.143038776E1
1.074756917E0,5.055736542E0,-7.176376648E0,6.885082397E0,1.115639787E1
1.084747917E0,5.832770691E0,-6.084996185E0,6.062692566E0,1.038290102E1
1.094738917E0,5.777685242E0,-5.291047211E0,5.794749756E0,9.744534472E0
1.104729917E0,6.785389709E0,-4.064348145E0,5.534590759E0,9.653607317E0
1.114720917E0,7.669900360E0,-3.059787140E0,6.055806885E0,1.024023759E1
1.124712917E0,5.488935699E0,-3.974235535E0,6.868766327E0,9.648985131E0
1.134703917E0,3.963757324E0,-3.795058136E0,7.536527710E0,9.322718933E0
1.144694917E0,4.436474304E0,-3.361110535E0,8.496631165E0,1.015736725E1
1.154685917E0,3.216511230E0,-4.616998901E0,9.414223022E0,1.096768975E1
1.164676917E0,3.192111969E0,-4.494254150E0,9.254654846E0,1.077202560E1
1.174668917E0,3.714675293E0,-4.272864532E0,9.592951355E0,1.113916063E1
1.184659917E0,3.980372772E0,-4.259542236E0,9.559720459E0,1.119711225E1
1.194650917E0,4.336482239E0,-3.860172729E0,9.052575073E0,1.075430738E1
1.204641917E0,4.403991852E0,-3.379372559E0,8.227790222E0,9.925312844E0
1.214632917E0,4.707261200E0,-2.954406281E0,8.056246948E0,9.787233489E0
1.224623917E0,4.858147430E0,-3.010090485E0,8.802445221E0,1.049501229E1
1.234614917E0,3.999682617E0,-3.596570892E0,8.783883820E0,1.029997079E1
1.244606917E0,3.485501862E0,-3.485352173E0,7.903714142E0,9.314778593E0
1.254597917E0,3.912114716E0,-3.828738098E0,8.029153290E0,9.717570660E0
1.264588917E0,4.084256744E0,-4.340823212E0,8.020321655E0,9.992470103E0
1.274579917E0,4.265080719E0,-4.458029480E0,8.117769012E0,1.019623039E1
1.284570917E0,4.548142090E0,-4.497547302E0,8.134234772E0,1.034791300E1
1.294562917E0,4.883594513E0,-4.604425049E0,8.149952087E0,1.055802749E1
1.304553917E0,5.380561066E0,-4.724475403E0,8.153544617E0,1.085133149E1
1.314544917E0,6.123166809E0,-4.401147766E0,8.074359283E0,1.104801119E1
1.324535917E0,6.990463257E0,-3.920048218E0,8.283324738E0,1.152591963E1
1.334526917E0,8.261021118E0,-3.689377899E0,8.385113068E0,1.233556243E1
1.344517917E0,8.930728455E0,-3.225791931E0,8.667425995E0,1.285643487E1
1.354509917E0,9.562863922E0,-3.566483459E0,8.985664215E0,1.359817385E1
1.364500917E0,9.763895874E0,-3.900588684E0,8.881630554E0,1.376341586E1
1.374491917E0,1.000010468E1,-4.156406708E0,8.338410187E0,1.366773188E1
1.384482917E0,1.013153137E1,-4.343667297E0,7.404202881E0,1.327921661E1
1.394473917E0,9.723629608E0,-4.239334259E0,6.539900208E0,1.246158988E1
1.404464917E0,9.227561188E0,-4.334087219E0,6.167474670E0,1.191511399E1
1.414456917E0,8.622220001E0,-4.874014435E0,5.611081696E0,1.138344993E1
1.424447917E0,7.487130432E0,-4.964426422E0,5.608536987E0,1.059048341E1
1.434438917E0,6.948550415E0,-5.379962311E0,6.427483978E0,1.088755701E1
1.444429917E0,6.957382050E0,-6.271807709E0,5.782924347E0,1.100831281E1
1.454420917E0,6.629713440E0,-6.259383545E0,4.684059448E0,1.025053148E1
1.464411917E0,6.857539673E0,-6.832841034E0,4.039649506E0,1.048962988E1
1.474403917E0,7.438780975E0,-7.685467987E0,3.343896332E0,1.120640546E1
1.484394917E0,8.140821075E0,-8.025111694E0,2.351310425E0,1.167064892E1
1.494385917E0,8.102500763E0,-7.623796234E0,1.830693054E0,1.127493790E1
1.504376917E0,7.132517853E0,-7.010371857E0,2.696342926E0,1.035801089E1
1.514367917E0,6.723418579E0,-7.342231750E0,3.760480042E0,1.064208319E1
1.524358917E0,6.714886322E0,-7.429200897E0,4.001029816E0,1.078382881E1
1.534350917E0,6.731052704E0,-7.584128723E0,3.713328094E0,1.079883718E1
1.544341917E0,6.271807709E0,-7.673492889E0,3.530408478E0,1.052054414E1
1.554332917E0,5.525459747E0,-7.619155884E0,3.390748901E0,1.000397021E1
1.564323917E0,4.996310120E0,-7.984546051E0,3.295247498E0,9.978714673E0
1.574314917E0,4.437073059E0,-7.904462585E0,3.094814301E0,9.578414360E0
1.584305917E0,4.658013611E0,-7.835306396E0,2.829715576E0,9.544443796E0
1.594297917E0,5.147795105E0,-7.638465729E0,2.592009888E0,9.568932458E0
1.604288917E0,5.149291992E0,-7.365283813E0,2.487527161E0,9.324720106E0
1.614280292E0,4.848567352E0,-7.077133026E0,2.624192963E0,8.971109516E0
1.624271292E0,4.436025238E0,-7.151678009E0,2.845133514E0,8.883670580E0
1.634262292E0,4.127217407E0,-7.093000031E0,3.056044922E0,8.756939164E0
1.644253292E0,4.586612091E0,-7.269033966E0,3.056643677E0,9.122441331E0
1.654245292E0,4.754862213E0,-6.810387726E0,3.088976440E0,8.861820981E0
1.664236292E0,4.571493530E0,-6.280190277E0,2.962190094E0,8.313477802E0
1.674227292E0,4.662803650E0,-6.316265259E0,2.567460938E0,8.260072661E0
1.684218292E0,4.734055481E0,-6.486311646E0,2.273023224E0,8.345666818E0
1.694209292E0,5.026996307E0,-6.516399078E0,2.242786102E0,8.530195679E0
1.704200292E0,5.257516937E0,-6.381978607E0,2.416874084E0,8.614662827E0
1.714192292E0,5.466931458E0,-6.205944672E0,2.554288330E0,8.655950422E0
1.724183292E0,5.635031891E0,-6.112389221E0,2.421664124E0,8.659061354E0
1.734174292E0,5.952521667E0,-5.952072601E0,2.281705170E0,8.721574453E0
1.744165292E0,6.712341614E0,-5.629942474E0,2.305954742E0,9.059205786E0
1.754156292E0,7.317383423E0,-5.998027039E0,2.352657623E0,9.749637245E0
1.764147292E0,7.475604401E0,-6.647676086E0,2.317480774E0,1.026873778E1
1.774138292E0,7.540419617E0,-6.948849792E0,2.807112579E0,1.063128978E1
1.784130292E0,7.498955841E0,-6.916966095E0,3.463946686E0,1.077393546E1
1.794121292E0,7.425009613E0,-6.718179474E0,3.867357788E0,1.073411195E1
1.804112292E0,7.345075836E0,-6.607858887E0,3.774700470E0,1.057649761E1
1.814103292E0,7.133565674E0,-6.378086700E0,3.563938751E0,1.021123933E1
1.824094292E0,6.876699829E0,-6.377637634E0,3.057691498E0,9.864721974E0
1.834085292E0,6.702013092E0,-6.414011993E0,2.140848083E0,9.520491576E0
1.844077292E0,3.183430023E0,-8.277337189E0,-1.182540894E-1,8.869189460E0
1.854068292E0,9.729766846E-1,-9.359287262E0,-4.285438385E0,1.033962881E1
1.864059292E0,5.297483826E0,-7.289092255E0,-2.875819702E0,9.458569646E0
1.874050292E0,7.493417358E0,-5.444328461E0,-6.812333679E-1,9.287415948E0
1.884041292E0,1.023481659E1,-5.183720398E0,1.661544800E-2,1.147269384E1
1.894032292E0,9.007219391E0,-5.854924622E0,-5.477110291E-1,1.075686436E1
1.904024292E0,8.695567474E0,-6.178851013E0,-1.550775146E0,1.077942471E1
1.914015292E0,1.033091675E1,-6.154152374E0,-2.952909393E0,1.238229002E1
1.924006292E0,1.244033020E1,-5.239853668E0,-2.615960083E0,1.374995015E1
1.933997292E0,9.833501129E0,-5.569917297E0,-5.397775269E-1,1.131428667E1
1.943988292E0,8.799451447E0,-5.689368896E0,-4.483177185E-1,1.048810054E1
1.953979292E0,9.801916809E0,-7.132517853E0,-5.640270996E-1,1.213542379E1
1.963971292E0,1.052715866E1,-8.254584503E0,9.569599915E-1,1.341174885E1
1.973962292E0,1.198407898E1,-7.444169769E0,1.272653503E0,1.416522006E1
1.983953292E0,1.340627151E1,-5.910758514E0,5.691165161E-1,1.466250578E1
1.993944292E0,1.364337845E1,-5.750591583E0,-3.332070923E-1,1.480952754E1
2.003935292E0,1.047042664E1,-6.191574554E0,-1.905088348E0,1.231238364E1
2.013926292E0,6.679559784E0,-6.484365692E0,-3.705394592E0,1.001965401E1
2.023918292E0,8.058342590E0,-6.846911774E0,-1.857187958E0,1.073621131E1
2.033909292E0,9.998458099E0,-6.191724243E0,1.149459686E0,1.181642378E1
2.043900292E0,1.145597717E1,-5.320386200E0,2.348616028E-1,1.263333219E1
2.053891292E0,1.119926102E1,-4.857249298E0,-3.510200500E-1,1.221226978E1
2.063882292E0,1.132440079E1,-4.871619415E0,-4.317022705E-1,1.233535957E1
2.073873292E0,1.194351334E1,-4.458029480E0,1.187031555E-1,1.274894616E1
2.083864292E0,1.224962677E1,-3.772006073E0,2.221380615E-1,1.281915485E1
2.093856292E0,1.317769684E1,-2.039658508E0,-1.257385254E-1,1.333520570E1
2.103847292E0,1.177182037E1,-1.351838837E0,-1.676214294E0,1.196715996E1
2.113838292E0,9.847272491E0,-1.386117554E0,-2.096689911E0,1.016298214E1
2.123829292E0,9.104666748E0,-1.578168182E0,-1.929188232E0,9.439668354E0
2.133820292E0,9.781409454E0,-6.589297485E-1,-2.724933472E0,1.017523571E1
2.143811292E0,1.399619476E1,2.078727264E0,-1.773811340E-1,1.415083174E1
2.153803292E0,1.533156784E1,2.006726990E0,5.709576874E0,1.648281510E1
2.163794292E0,7.319029999E0,-1.196012878E0,4.383484497E0,8.614730597E0
2.173785292E0,3.458557892E0,-1.988914032E0,1.315314789E0,4.200887372E0
2.183776292E0,6.758445740E-1,-3.496578827E0,-6.682104492E-1,3.623442367E0
2.193767292E0,-1.800904999E0,-4.697681122E0,-2.464774475E0,5.602372707E0
2.203758292E0,-8.649014282E-1,-4.278702393E0,-2.326312408E0,4.946420733E0
2.213750292E0,-5.523513794E-2,-3.673810272E0,-2.499651947E0,4.443893866E0
2.223741292E0,3.793112183E-1,-2.868035889E0,-2.739752655E0,3.984438664E0
2.233732292E0,-3.740721130E-1,-3.342998199E0,-2.019300842E0,3.923409588E0
2.243723292E0,7.137158203E-1,-6.479276276E0,-3.061433716E0,7.201582307E0
2.253714292E0,2.077529755E0,-7.963589630E0,-1.490749969E0,8.364043588E0
2.263705292E0,3.067121887E0,-7.007677460E0,1.282083893E0,7.756192311E0
2.273697292E0,2.881058807E0,-7.233258362E0,1.733245697E0,7.976507195E0
2.283688292E0,-9.569599915E-1,-6.792425079E0,1.101559296E0,6.947391148E0
2.293679292E0,-2.348616028E-1,-9.088799744E0,1.078058167E0,9.155525663E0
2.303670292E0,2.710114288E0,-1.159339142E1,-3.450325012E-1,1.191093999E1
2.313661292E0,5.469326477E0,-1.080962128E1,-2.496957550E0,1.236916494E1
2.323652292E0,6.818919983E0,-9.790241089E0,-3.420536957E0,1.241154960E1
2.333643292E0,5.946234741E0,-7.960296478E0,-2.799179077E0,1.032276277E1
2.343635292E0,4.893024902E0,-6.542594604E0,-3.785627747E-1,8.178664110E0
2.353626292E0,5.278772736E0,-6.999743958E0,1.517544250E0,8.897460178E0
2.363617292E0,8.475375366E0,-8.031847687E0,1.710193634E0,1.180115787E1
2.373608292E0,1.017793488E1,-9.303902435E0,2.255210266E0,1.397279257E1
2.383599292E0,1.033555710E1,-1.268043091E1,3.100053406E0,1.665014714E1
2.393590292E0,1.175849808E1,-1.585472992E1,4.920118561E0,2.034311442E1
2.403582292E0,1.241428436E1,-1.436532715E1,4.615052948E0,1.953908376E1
2.413573292E0,1.032762360E1,-1.192061096E1,2.390678558E0,1.595230763E1
2.423564292E0,7.380402374E0,-9.480834503E0,7.783813477E-1,1.204003487E1
2.433555292E0,5.525609436E0,-6.774163055E0,2.615061951E-1,8.745857890E0
2.443546292E0,4.678071899E0,-5.578599243E0,-6.652166748E-1,7.310789249E0
2.453537292E0,5.169649658E0,-8.105344849E0,-2.251617737E0,9.873787274E0
2.463528292E0,5.142855377E0,-1.192809540E1,-4.464466095E0,1.373535142E1
2.473520292E0,4.184847565E0,-1.510748383E1,-5.271138611E0,1.653886087E1
2.483511292E0,2.355352020E0,-1.784948181E1,-4.749623108E0,1.862016659E1
2.493502292E0,7.473957825E-1,-1.904549469E1,-3.854783936E0,1.944604915E1
2.503493292E0,-4.963677979E-1,-1.854837845E1,-2.573598175E0,1.873264881E1
2.513484292E0,-1.389859772E0,-1.687994797E1,-1.247655487E0,1.698296199E1
2.523475292E0,-1.661544800E0,-1.465766922E1,2.140548706E-2,1.475155776E1
2.533467292E0,-1.623972931E0,-1.242640915E1,1.667232971E0,1.264249177E1
2.543458292E0,-1.873653717E0,-1.039378601E1,3.501967621E0,1.112677595E1
2.553449292E0,-2.416574707E0,-8.781788177E0,4.893473969E0,1.033952244E1
2.563440292E0,-2.768941956E0,-7.579488373E0,5.808820496E0,9.942740020E0
2.573431292E0,-3.253933411E0,-6.839876404E0,6.491401062E0,9.975483929E0
2.583422292E0,-4.395609283E0,-6.487658844E0,6.891668701E0,1.043581313E1
2.593413292E0,-5.646857300E0,-6.378535767E0,6.671476593E0,1.082041200E1
2.603405292E0,-6.731501770E0,-6.577322388E0,5.776188354E0,1.104258293E1
2.613395917E0,-7.414082336E0,-7.008874969E0,4.521946564E0,1.115979148E1
2.623386917E0,-8.563691711E0,-7.519463196E0,3.300037537E0,1.186462769E1
2.633377917E0,-9.443112946E0,-7.908653870E0,2.059716797E0,1.248845953E1
2.643368917E0,-9.232500916E0,-8.337661743E0,7.954458618E-1,1.246548878E1
2.653359917E0,-8.895850983E0,-8.602012024E0,-5.144801331E-1,1.238529230E1
2.663350917E0,-8.206833801E0,-8.644074554E0,-1.462159424E0,1.200874915E1
2.673342917E0,-7.173682251E0,-8.356223145E0,-1.822460175E0,1.116286448E1
2.683333917E0,-6.268364868E0,-8.233328705E0,-2.204316101E0,1.058012803E1
2.693324917E0,-5.698799286E0,-8.607400818E0,-2.297272797E0,1.057549642E1
2.703315917E0,-4.062851257E0,-9.488618317E0,-5.439239044E0,1.166730300E1
2.713306917E0,-3.390748901E0,-1.005114853E1,-3.330574036E0,1.111825023E1
2.723297917E0,-4.679568787E0,-9.581125946E0,3.820056152E-1,1.066968916E1
2.733289917E0,-4.762047272E0,-9.511221313E0,6.586303711E-1,1.065712058E1
2.743280917E0,-4.071832581E0,-9.376800842E0,5.060975647E-1,1.023525033E1
2.753271917E0,-3.478466492E0,-9.103020172E0,4.447251892E-1,9.755126134E0
2.763262917E0,-3.086880798E0,-9.030720520E0,5.771997070E-1,9.561166544E0
2.773253917E0,-2.871179352E0,-9.044042816E0,7.828720093E-1,9.521096046E0
2.783244917E0,-2.745889893E0,-9.110055542E0,8.738827515E-1,9.554930368E0
2.793235917E0,-2.727627869E0,-9.202413483E0,9.485774231E-1,9.644903671E0
2.803227917E0,-2.900069275E0,-9.213340759E0,1.110540619E0,9.722620542E0
2.813218917E0,-3.135829010E0,-9.194629669E0,1.156345367E0,9.783239389E0
2.823209917E0,-3.347937927E0,-9.173074493E0,1.170715485E0,9.834864451E0
2.833200917E0,-3.571273499E0,-9.150022430E0,1.198407898E0,9.895104162E0
2.843191917E0,-3.823498993E0,-9.075028381E0,1.193767548E0,9.919695844E0
2.853182917E0,-4.038901062E0,-8.929081879E0,1.033151550E0,9.854370965E0
2.863173917E0,-4.140539703E0,-8.781638489E0,7.963439941E-1,9.741427377E0
2.873165917E0,-4.257745972E0,-8.731492767E0,5.514532471E-1,9.729926381E0
2.883156917E0,-4.439917145E0,-8.791817322E0,4.391867065E-1,9.859097374E0
2.893147917E0,-4.569397888E0,-8.779243469E0,4.200265503E-1,9.906105958E0
2.903138917E0,-4.622986450E0,-8.673114166E0,4.093986511E-1,9.836794209E0
2.913129917E0,-4.582420807E0,-8.607400818E0,4.484674072E-1,9.761508711E0
2.923120917E0,-4.437522125E0,-8.640032959E0,5.477110291E-1,9.728399638E0
2.933112917E0,-4.266427917E0,-8.703500977E0,6.753955078E-1,9.716454884E0
2.943103917E0,-4.039050751E0,-8.683891754E0,8.186476135E-1,9.612184501E0
2.953094917E0,-3.664230194E0,-8.488547974E0,1.020128632E0,9.301757471E0
2.963085917E0,-3.267555084E0,-8.101602631E0,1.288221130E0,8.830197908E0
2.973076917E0,-3.385659485E0,-8.051157532E0,1.598974915E0,8.879220040E0
2.983067917E0,-3.860172729E0,-8.387657776E0,1.725910950E0,9.393215907E0
2.993058917E0,-4.783003693E0,-9.260193329E0,2.271975403E0,1.066724787E1
3.003050917E0,-4.812192993E0,-9.843530273E0,1.256187744E0,1.102861266E1
3.013041917E0,-4.428840179E0,-9.739047546E0,6.004014587E-1,1.071560331E1
3.023032917E0,-4.207899628E0,-8.997190247E0,5.905220032E-1,9.950103911E0
3.033023917E0,-4.314477997E0,-8.427025909E0,5.272036743E-1,9.481952846E0
3.043014917E0,-4.426445160E0,-8.222102051E0,6.713539124E-1,9.362002722E0
3.053005917E0,-4.526287537E0,-8.054001617E0,9.636959839E-1,9.288860580E0
3.062996917E0,-4.871619415E0,-8.244555359E0,1.415157166E0,9.680291245E0
3.072988917E0,-5.065166931E0,-8.684640198E0,1.452429657E0,1.015817126E1
3.082979917E0,-5.045108643E0,-8.953481140E0,1.312171326E0,1.036048934E1
3.092970917E0,-4.958738251E0,-9.253457336E0,1.087787933E0,1.055456490E1
3.102961917E0,-4.378544769E0,-9.189540253E0,1.076411591E0,1.023611090E1
3.112952917E0,-4.137396240E0,-8.925040283E0,1.286125488E0,9.921114377E0
3.122943917E0,-4.135150909E0,-8.870703278E0,1.340163116E0,9.878506307E0
3.132934917E0,-4.209995270E0,-8.907826080E0,1.381028137E0,9.948902671E0
3.142926917E0,-4.291875000E0,-8.872948608E0,1.445843353E0,9.961921051E0
3.152917917E0,-4.294569397E0,-8.758586426E0,1.413959656E0,9.856746136E0
3.162908917E0,-4.273463287E0,-8.673563232E0,1.403481445E0,9.770514203E0
3.172899917E0,-4.304897919E0,-8.746311951E0,1.437161407E0,9.853707512E0
3.182890917E0,-4.379592590E0,-8.838220825E0,1.416504364E0,9.965011953E0
3.192881917E0,-4.361031189E0,-8.856333160E0,1.316212921E0,9.959199091E0
3.202873917E0,-4.236190796E0,-8.802295532E0,1.183888092E0,9.840086895E0
3.212864917E0,-4.097728729E0,-8.735684052E0,1.090332642E0,9.710426451E0
3.222855917E0,-4.038302307E0,-8.769813080E0,1.027613068E0,9.709453929E0
3.232846917E0,-3.947441254E0,-8.958121490E0,9.949809265E-1,9.839726629E0
3.242837917E0,-3.742667084E0,-8.997339935E0,1.038390656E0,9.799894794E0
3.252828917E0,-3.727249146E0,-8.968150635E0,1.128054199E0,9.777147758E0
3.262819917E0,-3.788322144E0,-9.052275696E0,1.148561554E0,9.879993602E0
3.272811917E0,-3.725003815E0,-9.080866241E0,1.102307739E0,9.876885515E0
3.282802917E0,-3.681444397E0,-9.067394257E0,1.027313690E0,9.840022605E0
3.292793917E0,-3.650907898E0,-9.054371338E0,1.002315674E0,9.814041243E0
3.302784917E0,-3.644321594E0,-8.973988495E0,9.991722107E-1,9.737139955E0
3.312775917E0,-3.709735565E0,-8.871302032E0,1.072968750E0,9.675401783E0
3.322766917E0,-3.951482849E0,-8.973090363E0,1.169667664E0,9.874142485E0
3.332757917E0,-4.138743439E0,-9.101672974E0,1.228794708E0,1.007370759E1
3.342749917E0,-4.191134491E0,-9.035809937E0,1.150657196E0,1.002673833E1
3.352740917E0,-4.095483398E0,-8.864566040E0,1.091530151E0,9.825729154E0
3.362731917E0,-3.998485107E0,-8.865763550E0,1.094523926E0,9.787115464E0
3.372722917E0,-3.916455688E0,-8.907377014E0,1.176703033E0,9.801256065E0
3.382713917E0,-3.927832031E0,-8.899593201E0,1.319356384E0,9.816889776E0
3.392704917E0,-3.909719696E0,-8.832382965E0,1.394949188E0,9.759240758E0
3.402696917E0,-3.987258453E0,-8.866511993E0,1.439406738E0,9.827774756E0
3.412687917E0,-4.060306549E0,-8.953032074E0,1.389261017E0,9.928389535E0
3.422678917E0,-4.178261261E0,-9.051527252E0,1.323098602E0,1.005676900E1
3.432669917E0,-4.180207214E0,-8.964558105E0,1.264869690E0,9.971826799E0
3.442660917E0,-4.121529236E0,-8.881331177E0,1.298549652E0,9.876805046E0
3.452651917E0,-3.997287598E0,-8.865314484E0,1.350341949E0,9.818122652E0
3.462642917E0,-3.907624054E0,-8.905880127E0,1.371597748E0,9.821685546E0
3.472634917E0,-3.878434753E0,-8.955876160E0,1.321302338E0,9.848645277E0
3.482625917E0,-3.885470123E0,-8.899443512E0,1.292861481E0,9.796349509E0
3.492616917E0,-3.914210358E0,-8.822952576E0,1.315464478E0,9.741456856E0
3.502607917E0,-3.921096039E0,-8.800050201E0,1.332678680E0,9.725837247E0
3.512598917E0,-3.912713470E0,-8.832832031E0,1.295855255E0,9.747178527E0
3.522589917E0,-3.898043976E0,-9.009464722E0,1.243314514E0,9.895000373E0
3.532580917E0,-3.863615570E0,-9.233249359E0,1.174906769E0,1.007773908E1
3.542572917E0,-3.751498718E0,-9.267528076E0,1.044527893E0,1.005245531E1
3.552563917E0,-3.550017700E0,-9.158105621E0,8.819659424E-1,9.861611844E0
3.562554917E0,-3.468736725E0,-9.121431885E0,7.960446167E-1,9.791135845E0
3.572545917E0,-3.407813416E0,-9.092691650E0,7.698490906E-1,9.740785458E0
3.582536917E0,-3.375929718E0,-9.077872467E0,8.262817383E-1,9.720463543E0
3.592527917E0,-3.392395477E0,-9.102720795E0,9.116043091E-1,9.756992126E0
3.602518917E0,-3.435206451E0,-9.107810211E0,9.134005737E-1,9.776868150E0
3.612510917E0,-3.513643341E0,-9.111702118E0,9.213340759E-1,9.809060174E0
3.622502167E0,-3.597618713E0,-9.129515076E0,9.223818970E-1,9.856048614E0
3.632493167E0,-3.689078522E0,-9.100026398E0,9.358538818E-1,9.863853368E0
3.642484167E0,-3.722608795E0,-8.982820129E0,8.987310791E-1,9.765069957E0
3.652475167E0,-3.728296967E0,-8.828491058E0,8.190966797E-1,9.618387183E0
3.662466167E0,-3.781286774E0,-8.758736115E0,7.592211914E-1,9.570266705E0
3.672458167E0,-3.959566040E0,-8.887169037E0,7.914042664E-1,9.761467996E0
3.682449167E0,-4.222569122E0,-9.073082428E0,9.418414307E-1,1.005176502E1
3.692440167E0,-4.303550720E0,-8.850495300E0,1.047072601E0,9.896877128E0
3.702431167E0,-4.287384338E0,-8.515791321E0,1.101858673E0,9.597627770E0
3.712422167E0,-4.448150024E0,-8.507857819E0,1.183289337E0,9.673151346E0
3.722413167E0,-4.797972565E0,-8.722062378E0,1.302441559E0,1.003948539E1
3.732404167E0,-4.984484711E0,-8.686735840E0,1.409169617E0,1.011386308E1
3.742396167E0,-5.017266541E0,-8.436007233E0,1.540596313E0,9.935422415E0
3.752387167E0,-5.074447632E0,-8.272397461E0,1.585203552E0,9.833384403E0
3.762378167E0,-5.165757751E0,-8.237070923E0,1.516047363E0,9.840365346E0
3.772369167E0,-5.298082581E0,-8.405620422E0,1.382225647E0,1.003168388E1
3.782360167E0,-5.326822815E0,-8.663683777E0,1.256487122E0,1.024759571E1
3.792351167E0,-5.119803314E0,-8.671467590E0,1.187330933E0,1.013984669E1
3.802342167E0,-4.789739685E0,-8.615933075E0,1.119372253E0,9.921134171E0
3.812334167E0,-4.518503723E0,-8.698710938E0,1.066681824E0,9.860134785E0
3.822325167E0,-4.307143250E0,-8.852141876E0,1.015039215E0,9.896575336E0
3.832316167E0,-4.111350403E0,-8.886270905E0,9.502239990E-1,9.837272913E0
3.842307167E0,-4.004921722E0,-9.016500092E0,9.231303406E-1,9.909028284E0
3.852298167E0,-3.914958801E0,-9.126970367E0,8.963360596E-1,9.971554986E0
3.862289167E0,-3.835025024E0,-9.123527527E0,8.319699097E-1,9.931683916E0
3.872280167E0,-3.714525604E0,-9.091494141E0,7.726931763E-1,9.851396902E0
3.882272167E0,-3.603755951E0,-9.128018188E0,7.041357422E-1,9.838881041E0
3.892263167E0,-3.550616455E0,-9.232051849E0,7.111711121E-1,9.916825244E0
3.902254167E0,-3.440894623E0,-9.255253601E0,7.644602966E-1,9.903730336E0
3.912245167E0,-3.325185242E0,-9.205107880E0,8.132588196E-1,9.821011041E0
3.922236167E0,-3.255579987E0,-9.090895386E0,8.577163696E-1,9.694269304E0
3.932227167E0,-3.180735626E0,-8.970246277E0,8.373587036E-1,9.554243402E0
3.942218167E0,-3.160527649E0,-8.948840790E0,7.738906860E-1,9.522058249E0
3.952210167E0,-3.222349091E0,-8.971593475E0,6.953041077E-1,9.558057907E0
3.962201167E0,-3.397933960E0,-8.926836548E0,7.033872986E-1,9.577532022E0
3.972192167E0,-3.667673035E0,-8.868757324E0,7.821235657E-1,9.629039372E0
3.982183167E0,-3.992198181E0,-8.794062653E0,9.134005737E-1,9.700901240E0
3.992174167E0,-4.302652588E0,-8.702303467E0,9.876461792E-1,9.757989029E0
4.002165167E0,-4.486320648E0,-8.591084747E0,9.972262573E-1,9.743113994E0
4.012156167E0,-4.655319214E0,-8.473878479E0,9.948312378E-1,9.719480575E0
4.022148167E0,-4.779261475E0,-8.490194550E0,1.019380188E0,9.796115541E0
4.032139167E0,-4.844376068E0,-8.645122375E0,1.037043457E0,9.964014227E0
4.042130167E0,-4.733606415E0,-8.744066620E0,1.149160309E0,1.000931067E1
4.052121167E0,-4.426894226E0,-8.757538605E0,1.213676147E0,9.887612689E0
4.062112167E0,-4.127067719E0,-8.776100006E0,1.212927704E0,9.773628440E0
4.072103167E0,-3.902235260E0,-8.870254211E0,1.136287079E0,9.757048638E0
4.082094167E0,-3.753294983E0,-9.014105072E0,1.035247192E0,9.819014728E0
4.092086167E0,-3.721411285E0,-9.214687958E0,9.952803040E-1,9.987490125E0
4.102077167E0,-3.724405060E0,-9.307345276E0,9.792636108E-1,1.007257794E1
4.112068167E0,-3.717968445E0,-9.260343018E0,9.988728333E-1,1.002870825E1
4.122059167E0,-3.750450897E0,-9.113199005E0,9.985734558E-1,9.905222208E0
4.132050167E0,-3.842808838E0,-8.979377289E0,9.821076965E-1,9.816360414E0
4.142041167E0,-3.948938141E0,-8.925938416E0,9.117539978E-1,9.802947740E0
4.152032167E0,-4.000431061E0,-8.972341919E0,9.114546204E-1,9.865957516E0
4.162024167E0,-4.045337677E0,-9.025032349E0,9.493258667E-1,9.935652239E0
4.172015167E0,-3.960314484E0,-8.985215149E0,9.533674622E-1,9.865449387E0
4.182006167E0,-3.805236969E0,-8.919651489E0,9.743238831E-1,9.746246360E0
4.191997167E0,-3.717519379E0,-8.897946625E0,1.017733612E0,9.696864760E0
4.201988167E0,-3.716770935E0,-8.941805420E0,1.021775208E0,9.737263215E0
4.211979167E0,-3.714824982E0,-8.972192230E0,1.019829254E0,9.764231141E0
4.221970167E0,-3.761677551E0,-8.990903320E0,9.686357117E-1,9.794121485E0
4.231962167E0,-3.846101990E0,-8.959917755E0,9.626481628E-1,9.797924177E0
4.241953167E0,-3.917054443E0,-8.894204407E0,9.485774231E-1,9.764731777E0
4.251944167E0,-3.985013123E0,-8.908724213E0,9.319619751E-1,9.803787524E0
4.261935167E0,-4.064348145E0,-8.943751373E0,9.279203796E-1,9.867656799E0
4.271926167E0,-4.137545929E0,-8.950337677E0,9.479786682E-1,9.905881808E0
4.281917167E0,-4.158202972E0,-8.927884369E0,1.021775208E0,9.901605720E0
4.291908167E0,-4.120032349E0,-8.880133667E0,1.091230774E0,9.849986046E0
4.301900167E0,-4.045038300E0,-8.856033783E0,1.107696533E0,9.798911206E0
4.311891167E0,-3.986510010E0,-8.888516235E0,1.068029022E0,9.799932087E0
4.321882167E0,-3.949686584E0,-8.953331451E0,9.894424438E-1,9.835708645E0
4.331873167E0,-3.890409851E0,-8.986113281E0,9.692344666E-1,9.839966268E0
4.341864167E0,-3.855532379E0,-9.005872192E0,9.645941162E-1,9.843846082E0
4.351855167E0,-3.858077087E0,-8.978479156E0,1.008452911E0,9.824195848E0
4.361846167E0,-3.871848450E0,-8.969797211E0,1.062490540E0,9.827378011E0
4.371838167E0,-3.858226776E0,-8.931177521E0,1.038091278E0,9.784144279E0
4.381829167E0,-3.852688293E0,-8.970246277E0,1.030307465E0,9.816825293E0
4.391820167E0,-3.846101990E0,-8.960965576E0,1.039438477E0,9.806724067E0
4.401811167E0,-3.811224518E0,-8.945847015E0,1.043929138E0,9.779744332E0
4.411802167E0,-3.836521912E0,-8.946745148E0,1.126407623E0,9.799588933E0
4.421793167E0,-3.948189697E0,-8.918903046E0,1.118025055E0,9.817586946E0
4.431784167E0,-3.977378998E0,-8.853189697E0,1.025367737E0,9.759605038E0
4.441776167E0,-4.006717987E0,-8.796158295E0,9.166937256E-1,9.709094559E0
4.451767167E0,-4.039948883E0,-8.778195648E0,8.256829834E-1,9.698435864E0
4.461758167E0,-4.054019623E0,-8.829987946E0,7.960446167E-1,9.748715262E0
4.471749167E0,-4.057462463E0,-8.947643280E0,8.381071472E-1,9.860311633E0
4.481740167E0,-4.019591217E0,-9.011111298E0,8.752299500E-1,9.905718946E0
4.491731167E0,-3.987707520E0,-8.992699585E0,8.825646973E-1,9.876708841E0
4.501722167E0,-3.945495300E0,-8.959169312E0,8.994795227E-1,9.830702484E0
4.511714167E0,-4.006717987E0,-8.970994720E0,9.535171509E-1,9.871257785E0
4.521705167E0,-4.071084137E0,-8.946745148E0,9.680369568E-1,9.876997030E0
4.531696167E0,-4.079167328E0,-8.851393433E0,9.818083191E-1,9.795443806E0
4.541687167E0,-4.116589508E0,-8.784482574E0,1.029259644E0,9.755655728E0
4.551678167E0,-4.108805695E0,-8.812324677E0,1.062939606E0,9.781062879E0
4.561669167E0,-4.039948883E0,-8.815617828E0,1.007554779E0,9.749434410E0
4.571660167E0,-3.934717712E0,-8.876690826E0,9.377998352E-1,9.754850693E0
4.581652167E0,-3.907923431E0,-8.993298340E0,9.147477722E-1,9.848250812E0
4.591643167E0,-3.913910980E0,-9.092541962E0,9.265731812E-1,9.942411998E0
4.601634167E0,-3.910019073E0,-8.993897095E0,9.583071899E-1,9.853770181E0
4.611625167E0,-3.948638763E0,-8.876690826E0,9.812095642E-1,9.764740668E0
4.621616083E0,-4.068090363E0,-8.878038025E0,1.000818787E0,9.816850646E0
4.631607083E0,-4.168531494E0,-8.855435028E0,9.741741943E-1,9.835873104E0
4.641598083E0,-4.203708344E0,-8.839118958E0,9.559121704E-1,9.834376231E0
4.651589083E0,-4.190984802E0,-8.833730164E0,9.460327148E-1,9.823142069E0
4.661581083E0,-4.159550171E0,-8.889414368E0,9.770182800E-1,9.862966600E0
4.671572083E0,-4.117787018E0,-8.928632812E0,1.028211823E0,9.886044375E0
4.681563083E0,-4.068240051E0,-8.890611877E0,1.004111938E0,9.828621341E0
4.691554083E0,-4.022584991E0,-8.890911255E0,9.517208862E-1,9.804859285E0
4.701545083E0,-3.971840515E0,-8.977281647E0,8.620573425E-1,9.854453090E0
4.711536083E0,-3.936214600E0,-9.032965851E0,8.170010376E-1,9.887150658E0
4.721527083E0,-3.883973236E0,-9.040450287E0,8.363108826E-1,9.874938247E0
4.731519083E0,-3.838018799E0,-8.994944916E0,8.843609619E-1,9.819445842E0
4.741510083E0,-3.802243195E0,-8.939859467E0,9.554631042E-1,9.761713494E0
4.751501083E0,-3.764671326E0,-8.947194214E0,9.903405762E-1,9.757346409E0
4.761492083E0,-3.721411285E0,-9.007369080E0,9.195378113E-1,9.789134256E0
4.771483083E0,-3.721860352E0,-9.039252777E0,8.098159790E-1,9.808982473E0
4.781474083E0,-3.681893463E0,-8.992849274E0,6.914122009E-1,9.741957112E0
4.791465083E0,-3.654949493E0,-8.932973785E0,6.725514221E-1,9.675174513E0
4.801457083E0,-3.715124359E0,-8.902736664E0,7.515870667E-1,9.676040111E0
4.811448083E0,-3.863316193E0,-8.939410400E0,8.394543457E-1,9.774607609E0
4.821439083E0,-4.038302307E0,-9.000483398E0,9.222322083E-1,9.907931125E0
4.831430083E0,-4.137545929E0,-9.024583282E0,9.455836487E-1,9.972788886E0
4.841421083E0,-4.172872467E0,-8.983568573E0,9.111552429E-1,9.947239457E0
4.851412083E0,-4.140689392E0,-8.908424835E0,8.744815063E-1,9.862558471E0
4.861403083E0,-4.095932465E0,-8.885522461E0,8.322692871E-1,9.819462527E0
4.871394083E0,-4.077520752E0,-8.909772034E0,8.134085083E-1,9.832184222E0
4.881386083E0,-4.027524719E0,-8.845256195E0,8.123606873E-1,9.752919686E0
4.891377083E0,-3.968846741E0,-8.824748840E0,8.414002991E-1,9.712666524E0
4.901368083E0,-3.971690826E0,-8.827443237E0,9.072633362E-1,9.722201854E0
4.911359083E0,-3.964805145E0,-8.838669891E0,9.503736877E-1,9.733703069E0
4.921350083E0,-3.951782227E0,-8.889863434E0,9.258247375E-1,9.772584412E0
4.931341083E0,-3.935166779E0,-8.921447754E0,8.849597168E-1,9.790859069E0
4.941332083E0,-3.920497284E0,-8.964109039E0,7.867639160E-1,9.815525828E0
4.951324083E0,-3.901037750E0,-8.987909546E0,7.444020081E-1,9.826227551E0
4.961315083E0,-3.845952301E0,-9.015901337E0,7.246430969E-1,9.828679140E0
4.971306083E0,-3.819607086E0,-9.051227875E0,7.309300232E-1,9.851313772E0
4.981297083E0,-3.842060394E0,-9.018895111E0,7.801776123E-1,9.834153456E0
4.991288083E0,-3.883524170E0,-9.038803711E0,8.216413879E-1,9.872022441E0
5.001279083E0,-3.925736389E0,-9.014254761E0,8.451425171E-1,9.868255214E0
5.011270083E0,-3.916755066E0,-8.932824097E0,8.141569519E-1,9.787704947E0
5.021261083E0,-3.852987671E0,-8.856482849E0,8.244854736E-1,9.693429669E0
5.031253083E0,-3.832180939E0,-8.850794678E0,8.587641907E-1,9.682956837E0
5.041244083E0,-3.898792419E0,-8.903185730E0,8.873547363E-1,9.759851275E0
5.051235083E0,-3.968846741E0,-8.978778534E0,8.794212341E-1,9.856144790E0
5.061226083E0,-4.057163086E0,-9.061107330E0,8.411009216E-1,9.963517909E0
5.071217083E0,-4.120631104E0,-9.057664490E0,7.863148499E-1,9.981942584E0
5.081208083E0,-4.140539703E0,-8.988358612E0,7.616162109E-1,9.925458117E0
5.091199083E0,-4.136049042E0,-8.910670166E0,8.063731384E-1,9.856834285E0
5.101191083E0,-4.124373322E0,-8.849597168E0,8.430468750E-1,9.799824150E0
5.111182083E0,-4.051774292E0,-8.815318451E0,8.433462524E-1,9.738477664E0
5.121173083E0,-3.923790436E0,-8.828191681E0,8.181985474E-1,9.695491148E0
5.131164083E0,-3.805835724E0,-8.897796936E0,8.068222046E-1,9.711134740E0
5.141155083E0,-3.743116150E0,-8.992400208E0,8.131091309E-1,9.774217435E0
5.151146083E0,-3.729793854E0,-9.058263245E0,8.024812317E-1,9.828909977E0
5.161137083E0,-3.710184631E0,-9.110953674E0,7.560777283E-1,9.866438080E0
5.171129083E0,-3.722309418E0,-9.087003479E0,7.002438354E-1,9.844773286E0
5.181120083E0,-3.770060120E0,-9.008865967E0,6.451583862E-1,9.787198203E0
5.191111083E0,-3.827540588E0,-8.943751373E0,5.863307190E-1,9.746001195E0
5.201102083E0,-3.846700745E0,-8.964258728E0,6.029461670E-1,9.773361000E0
5.211093083E0,-3.857628021E0,-9.035360870E0,6.617738342E-1,9.846673784E0
5.221084083E0,-3.811374207E0,-9.044641571E0,7.373666382E-1,9.842551704E0
5.231075083E0,-3.702101440E0,-9.022637329E0,7.619155884E-1,9.782333812E0
5.241066083E0,-3.645668793E0,-9.028026123E0,7.264393616E-1,9.763394429E0
5.251058083E0,-3.621119843E0,-9.039851532E0,6.987469482E-1,9.763179397E0
5.261049083E0,-3.662583618E0,-9.068442078E0,6.855743408E-1,9.804140587E0
5.271040083E0,-3.704346771E0,-9.025930481E0,7.062313843E-1,9.782043182E0
5.281031083E0,-3.785028992E0,-8.947792969E0,7.312294006E-1,9.742902027E0
5.291022083E0,-3.894002380E0,-8.942104797E0,7.581733704E-1,9.782602905E0
5.301013083E0,-3.963308258E0,-8.975335693E0,7.613168335E-1,9.840938293E0
5.311004083E0,-3.976480865E0,-8.925938416E0,7.508386230E-1,9.800435465E0
5.320996083E0,-3.943399658E0,-8.925489349E0,7.277865601E-1,9.784908496E0
5.330987083E0,-3.884272614E0,-8.961714020E0,7.378157043E-1,9.795114288E0
5.340978083E0,-3.810027008E0,-9.008267212E0,7.484436035E-1,9.809452166E0
5.350969083E0,-3.767814789E0,-9.006920013E0,7.806266785E-1,9.794407303E0
5.360960083E0,-3.761527863E0,-8.974437561E0,7.725434875E-1,9.761477595E0
5.370951083E0,-3.782783661E0,-8.948541412E0,7.714956665E-1,9.745822243E0
5.380942083E0,-3.811074829E0,-8.965605927E0,7.601193237E-1,9.771599786E0
5.390933083E0,-3.838168488E0,-8.987460480E0,7.017407227E-1,9.797878508E0
5.400925083E0,-3.885021057E0,-9.006620636E0,6.837780762E-1,9.832606793E0
5.410916083E0,-3.967200165E0,-9.053173828E0,6.786886597E-1,9.907535102E0
5.420907083E0,-4.020040283E0,-8.998387756E0,7.424560547E-1,9.883468373E0
5.430898083E0,-4.035607910E0,-8.925938416E0,8.054750061E-1,9.828901149E0
5.440889083E0,-4.039200439E0,-8.865763550E0,8.538244629E-1,9.779873196E0
5.450880083E0,-4.048181763E0,-8.856482849E0,8.515791321E-1,9.774980873E0
5.460871083E0,-4.051923981E0,-8.879983978E0,8.631051636E-1,9.798834315E0
5.470862083E0,-4.021387482E0,-8.837921448E0,8.713380432E-1,9.748827764E0
5.480854083E0,-3.989204407E0,-8.809031525E0,8.517288208E-1,9.707637724E0
5.490845083E0,-3.976331177E0,-8.869954834E0,8.666976929E-1,9.759020098E0
5.500836083E0,-3.983965302E0,-8.990603943E0,8.650511169E-1,9.871740080E0
5.510827083E0,-4.002377014E0,-9.070687408E0,8.481362915E-1,9.950664651E0
5.520818083E0,-4.030518494E0,-8.997639313E0,8.062234497E-1,9.892046744E0
5.530809083E0,-4.089046783E0,-8.916208649E0,7.982899475E-1,9.841562229E0
5.540800083E0,-4.104614410E0,-8.873098297E0,7.970924377E-1,9.808929055E0
5.550792083E0,-4.093537445E0,-8.836723938E0,8.378077698E-1,9.774797217E0
5.560783083E0,-4.095034332E0,-8.828341370E0,9.071136475E-1,9.774035640E0
5.570774083E0,-4.102369080E0,-8.851094055E0,9.243278503E-1,9.799269361E0
5.580765083E0,-4.084855499E0,-8.896449738E0,9.018745422E-1,9.830881958E0
5.590756083E0,-4.078269196E0,-8.981772308E0,7.943980408E-1,9.896240785E0
5.600747083E0,-4.067641296E0,-9.014554138E0,7.216493225E-1,9.916081372E0
5.610738083E0,-4.040547638E0,-8.977730713E0,7.638615417E-1,9.874672573E0
5.620729708E0,-4.024231567E0,-8.906179504E0,8.726852417E-1,9.812036109E0
5.630721708E0,-4.011358337E0,-8.888516235E0,9.461824036E-1,9.797549577E0
5.640712708E0,-4.059857483E0,-8.904682617E0,9.836045837E-1,9.835816858E0
5.650703708E0,-4.076472931E0,-8.876541138E0,9.839039612E-1,9.817264442E0
5.660694708E0,-4.140839081E0,-8.829688568E0,9.476792908E-1,9.798369484E0
5.670685708E0,-4.200415192E0,-8.839118958E0,9.294172668E-1,9.830428688E0
5.680676708E0,-4.301754456E0,-8.845854950E0,8.999285889E-1,9.877454766E0
5.690667708E0,-4.377047882E0,-8.862320709E0,8.512797546E-1,9.920884725E0
5.700659708E0,-4.435276794E0,-8.818611603E0,8.726852417E-1,9.909650366E0
5.710650708E0,-4.453688507E0,-8.746012573E0,9.002279663E-1,9.855885939E0
5.720641708E0,-4.389771423E0,-8.759035492E0,8.675958252E-1,9.835828303E0
5.730632708E0,-4.211641846E0,-8.898246002E0,7.879614258E-1,9.876112199E0
5.740623708E0,-4.009412384E0,-9.031918030E0,7.017407227E-1,9.906733619E0
5.750614708E0,-3.889960785E0,-9.148675232E0,6.382727051E-1,9.961799308E0
5.760605708E0,-3.777544556E0,-9.135951691E0,5.974076843E-1,9.904158324E0
5.770596708E0,-3.671115875E0,-8.961414642E0,6.514453125E-1,9.706102470E0
5.780588708E0,-3.629352722E0,-8.872649231E0,7.888595581E-1,9.618648812E0
5.790579708E0,-3.662583618E0,-8.899144135E0,9.042695618E-1,9.665763732E0
5.800570708E0,-3.669319611E0,-8.926686859E0,9.659413147E-1,9.699623050E0
5.810561708E0,-3.639232178E0,-8.932075653E0,9.623487854E-1,9.692889224E0
5.820552708E0,-3.614982605E0,-8.984616394E0,8.728349304E-1,9.723850667E0
5.830543708E0,-3.584446106E0,-9.046737213E0,7.764353943E-1,9.761893260E0
5.840534708E0,-3.552113342E0,-9.078471222E0,6.923103333E-1,9.773200219E0
5.850525708E0,-3.548071747E0,-9.124425659E0,6.280938721E-1,9.810120216E0
5.860517708E0,-3.569028168E0,-9.147028656E0,5.870791626E-1,9.836196279E0
5.870508708E0,-3.620670776E0,-9.122629395E0,5.894741821E-1,9.832553267E0
5.880499708E0,-3.624412994E0,-9.044192505E0,6.887178040E-1,9.767708013E0
5.890490708E0,-3.638932800E0,-8.979676666E0,8.665480042E-1,9.727658012E0
5.900481708E0,-3.739373932E0,-8.981472931E0,9.722282410E-1,9.777269617E0
5.910472708E0,-3.835174713E0,-8.990753632E0,9.608518982E-1,9.821682764E0
5.920463708E0,-3.888613586E0,-8.970096588E0,8.946894836E-1,9.817556605E0
5.930454708E0,-3.944148102E0,-8.958570557E0,8.476872253E-1,9.825012178E0
5.940446708E0,-4.030069427E0,-8.954978027E0,8.711883545E-1,9.858603360E0
5.950437708E0,-4.097878418E0,-8.946595459E0,9.547146606E-1,9.886640376E0
5.960428708E0,-4.139192505E0,-8.869655457E0,1.003662872E0,9.839260220E0
5.970419708E0,-4.211791534E0,-8.816965027E0,1.030157776E0,9.825440716E0
5.980410708E0,-4.276457062E0,-8.798253937E0,1.024020538E0,9.835953202E0
5.990401708E0,-4.358636169E0,-8.804840240E0,9.583071899E-1,9.871234654E0
6.000392708E0,-4.391567688E0,-8.833131409E0,9.017248535E-1,9.905714762E0
6.010383708E0,-4.399800568E0,-8.851243744E0,8.884025574E-1,9.924314584E0
6.020375708E0,-4.325554962E0,-8.838520203E0,9.324110413E-1,9.884293371E0
6.030366708E0,-4.249213715E0,-8.838071136E0,9.870474243E-1,9.856042879E0
6.040357708E0,-4.192631378E0,-8.865164795E0,9.966275024E-1,9.857107643E0
6.050348708E0,-4.148024139E0,-8.881780243E0,9.809101868E-1,9.851614555E0
6.060339708E0,-4.104913788E0,-8.901389465E0,9.256750488E-1,9.845909095E0
6.070330708E0,-4.111949158E0,-8.903634796E0,9.192384338E-1,9.850270948E0
6.080321708E0,-4.111200714E0,-8.898844757E0,8.918453979E-1,9.843109140E0
6.090313708E0,-4.060456238E0,-8.885971527E0,8.539741516E-1,9.806990705E0
6.100304708E0,-4.011508026E0,-8.914861450E0,7.776329041E-1,9.806715263E0
6.110295708E0,-3.959715729E0,-8.962013397E0,6.953041077E-1,9.822447790E0
6.120286708E0,-3.915856934E0,-8.993298340E0,6.433621216E-1,9.829916855E0
6.130277708E0,-3.912414093E0,-9.019643555E0,6.536906433E-1,9.853337777E0
6.140268708E0,-3.906875610E0,-9.013656006E0,7.204518127E-1,9.850315855E0
6.150259708E0,-3.881727905E0,-8.970246277E0,8.140072632E-1,9.807942578E0
6.160250708E0,-3.857029266E0,-8.901988220E0,9.033714294E-1,9.743620938E0
6.170242708E0,-3.845203857E0,-8.903784485E0,9.563612366E-1,9.745645062E0
6.180233708E0,-3.858975220E0,-8.919501801E0,9.496252441E-1,9.764783163E0
6.190224708E0,-3.852388916E0,-8.931327209E0,8.605604553E-1,9.764736063E0
6.200215708E0,-3.861968994E0,-8.964558105E0,7.331753540E-1,9.788547014E0
6.210206708E0,-3.859573975E0,-8.970096588E0,6.973997498E-1,9.790061822E0
6.220197708E0,-3.900289307E0,-8.960965576E0,7.366181946E-1,9.800702378E0
6.230188708E0,-3.947590942E0,-8.953481140E0,8.027806091E-1,9.817981232E0
6.240179708E0,-3.974834290E0,-8.907526703E0,8.843609619E-1,9.794153047E0
6.250171708E0,-4.001628571E0,-8.910221100E0,8.967851257E-1,9.808633688E0
6.260162708E0,-4.022584991E0,-8.938063202E0,8.948391724E-1,9.842301609E0
6.270153708E0,-4.021387482E0,-8.953032074E0,8.449928284E-1,9.851007739E0
6.280144708E0,-3.993695068E0,-8.931476898E0,7.761360168E-1,9.814441757E0
6.290135708E0,-3.974983978E0,-8.955277405E0,7.557783508E-1,9.826937058E0
6.300126708E0,-4.001029816E0,-8.995543671E0,8.119116211E-1,9.878625714E0
6.310117708E0,-4.019291840E0,-8.952433319E0,8.855584717E-1,9.853171217E0
6.320108708E0,-4.020788727E0,-8.878038025E0,9.490264893E-1,9.792188337E0
6.330100708E0,-4.062252502E0,-8.827892303E0,9.786648560E-1,9.766850199E0
6.340091708E0,-4.110152893E0,-8.809031525E0,9.786648560E-1,9.769860700E0
6.350082708E0,-4.134402466E0,-8.844507751E0,9.431886292E-1,9.808578180E0
6.360073708E0,-4.106859741E0,-8.917256470E0,8.622070313E-1,9.855311301E0
6.370064708E0,-4.070335693E0,-8.945397949E0,8.120613098E-1,9.861400544E0
6.380055708E0,-4.004472656E0,-8.946894836E0,7.954458618E-1,9.834401994E0
6.390046708E0,-3.941004639E0,-8.959768066E0,8.014334106E-1,9.820960079E0
6.400037708E0,-3.922742615E0,-8.974736938E0,8.499325562E-1,9.831388411E0
6.410029708E0,-3.933669891E0,-8.995244293E0,9.169931030E-1,9.860479454E0
6.420020708E0,-3.945345612E0,-8.972790985E0,9.593550110E-1,9.848710174E0
6.430011708E0,-3.944447479E0,-8.928932190E0,9.376501465E-1,9.806308366E0
6.440002708E0,-3.998634796E0,-8.936266937E0,9.388476562E-1,9.835007978E0
6.449993708E0,-4.070485382E0,-8.933871918E0,8.707392883E-1,9.856018750E0
6.459984708E0,-4.115841064E0,-8.886570282E0,7.849676514E-1,9.824838587E0
6.469975708E0,-4.122577057E0,-8.907077637E0,7.963439941E-1,9.847123304E0
6.479966708E0,-4.135300598E0,-8.922495575E0,8.138575745E-1,9.867826634E0
6.489958708E0,-4.139940948E0,-8.872948608E0,8.634045410E-1,9.829231682E0
6.499949708E0,-4.082161102E0,-8.841214600E0,9.562115479E-1,9.784960674E0
6.509940708E0,-4.044888611E0,-8.843310242E0,1.011895752E0,9.776972584E0
6.519931708E0,-3.991449738E0,-8.843010864E0,9.771679688E-1,9.751172719E0
6.529922708E0,-3.912114716E0,-8.907676392E0,9.256750488E-1,9.772830426E0
6.539913708E0,-3.867806854E0,-8.976682892E0,8.716374207E-1,9.813282702E0
6.549904708E0,-3.853137360E0,-9.018745422E0,7.991880798E-1,9.839874902E0
6.559895708E0,-3.873045959E0,-9.042695618E0,7.444020081E-1,9.865341524E0
6.569887708E0,-3.917952576E0,-9.030870209E0,7.033872986E-1,9.869231115E0
6.579878708E0,-3.941603394E0,-9.010662231E0,7.608677673E-1,9.864440730E0
6.589869708E0,-3.945046234E0,-8.998687134E0,8.262817383E-1,9.860147130E0
6.599860708E0,-3.928281097E0,-8.977431335E0,8.800199890E-1,9.838704231E0
6.609851708E0,-3.881129150E0,-8.940757599E0,8.884025574E-1,9.787214569E0
6.619842208E0,-3.833827515E0,-8.944799194E0,8.613088989E-1,9.769826972E0
6.629833208E0,-3.838617554E0,-8.988657990E0,7.979905701E-1,9.806515494E0
6.639824208E0,-3.865411835E0,-8.995543671E0,7.479945374E-1,9.819404789E0
6.649816208E0,-3.889661407E0,-8.984317017E0,7.327262878E-1,9.817550913E0
6.659807208E0,-3.886218567E0,-8.991502075E0,7.427554321E-1,9.823517188E0
6.669798208E0,-3.901337128E0,-9.005872192E0,7.914042664E-1,9.846445351E0
6.679789208E0,-3.922443237E0,-8.989107056E0,8.258326721E-1,9.842337436E0
6.689780208E0,-3.913312225E0,-8.922345886E0,8.177494812E-1,9.777064125E0
6.699771208E0,-3.928131409E0,-8.882678375E0,8.310717773E-1,9.747967572E0
6.709762208E0,-3.952680359E0,-8.917705536E0,8.198451233E-1,9.788835481E0
6.719753208E0,-3.960763550E0,-8.928782501E0,8.187973022E-1,9.802103543E0
6.729745208E0,-3.960464172E0,-8.944799194E0,8.021818542E-1,9.815202739E0
6.739736208E0,-3.976331177E0,-8.949888611E0,7.881111145E-1,9.825112463E0
6.749727208E0,-3.945644989E0,-8.935817871E0,7.716453552E-1,9.798591325E0
6.759718208E0,-3.939208374E0,-8.975036316E0,7.737409973E-1,9.831953754E0
6.769709208E0,-3.941453705E0,-9.004524994E0,7.673043823E-1,9.859273994E0
6.779700208E0,-3.919599152E0,-8.997938690E0,7.361691284E-1,9.842159477E0
6.789691208E0,-3.901337128E0,-8.973389740E0,7.354206848E-1,9.812390045E0
6.799682208E0,-3.901037750E0,-8.963210907E0,7.264393616E-1,9.802293580E0
6.809674208E0,-3.870650940E0,-8.961115265E0,7.300318909E-1,9.788588869E0
6.819665208E0,-3.824846191E0,-8.967402191E0,7.451504517E-1,9.777474093E0
6.829656208E0,-3.795058136E0,-8.961564331E0,7.298822021E-1,9.759345754E0
6.839647208E0,-3.769012299E0,-8.976533203E0,7.499404907E-1,9.764528293E0
6.849638208E0,-3.825444946E0,-9.020242310E0,7.072792053E-1,9.823392705E0
6.859629208E0,-3.868255920E0,-9.016500092E0,6.646179199E-1,9.833737578E0
6.869620208E0,-3.893852692E0,-8.952433319E0,6.483018494E-1,9.784091496E0
6.879611208E0,-3.927083588E0,-8.966354370E0,6.858737183E-1,9.812640774E0
6.889603208E0,-3.949237518E0,-9.006321259E0,7.804769897E-1,9.865061780E0
6.899594208E0,-3.911965027E0,-8.986412659E0,8.125103760E-1,9.834594855E0
6.909585208E0,-3.869154053E0,-8.950786743E0,8.186476135E-1,9.785556720E0
6.919576208E0,-3.865711212E0,-8.913364563E0,7.848179626E-1,9.747190890E0
6.929567208E0,-3.868106232E0,-8.911717987E0,7.255412292E-1,9.742041540E0
6.939558208E0,-3.912863159E0,-8.939260712E0,7.069798279E-1,9.783695654E0
6.949549208E0,-3.965852966E0,-8.969348145E0,6.878196716E-1,9.831088027E0
6.959540208E0,-3.982917480E0,-8.952732697E0,7.189549255E-1,9.825067459E0
6.969531208E0,-3.951632538E0,-8.968000946E0,7.595205688E-1,9.829410571E0
6.979523208E0,-3.946094055E0,-8.998088379E0,7.485932922E-1,9.853813713E0
6.989514208E0,-3.904929657E0,-8.992100830E0,6.975494385E-1,9.828170134E0
6.999505208E0,-3.886068878E0,-8.969797211E0,7.149133301E-1,9.801525106E0
7.009496208E0,-3.903881836E0,-8.940907288E0,7.349716187E-1,9.783675168E0
7.019487208E0,-3.926484833E0,-8.930129700E0,7.685018921E-1,9.785453222E0
7.029478208E0,-3.875590668E0,-8.925189972E0,7.756869507E-1,9.761194051E0
7.039469208E0,-3.838916931E0,-8.955576782E0,7.774832153E-1,9.774667199E0
7.049460208E0,-3.848197632E0,-8.974287872E0,7.349716187E-1,9.792172951E0
7.059452208E0,-3.855981445E0,-8.973988495E0,6.819818115E-1,9.791126677E0
7.069443208E0,-3.876488800E0,-8.980425110E0,6.520440674E-1,9.803079212E0
7.079434208E0,-3.883524170E0,-8.993448029E0,6.607260132E-1,9.818371875E0
7.089425208E0,-3.872596893E0,-9.014105072E0,6.700067139E-1,9.833616117E0
7.099416208E0,-3.839515686E0,-9.042096863E0,7.472460938E-1,9.851891854E0
7.109407208E0,-3.867208099E0,-9.055119781E0,7.571255493E-1,9.875410464E0
7.119398208E0,-3.934867401E0,-9.036109314E0,7.161108398E-1,9.881663207E0
7.129389208E0,-3.991449738E0,-9.015452271E0,7.318281555E-1,9.886638615E0
7.139381208E0,-4.024081879E0,-8.912316742E0,7.441026306E-1,9.806952299E0
7.149372208E0,-4.015549622E0,-8.801696777E0,7.843688965E-1,9.706170176E0
7.159363208E0,-3.993545380E0,-8.768615570E0,8.321195984E-1,9.671062338E0
7.169354208E0,-4.005370789E0,-8.880133667E0,8.164022827E-1,9.775800826E0
7.179345208E0,-3.936963043E0,-9.002429352E0,7.397616577E-1,9.853459268E0
7.189336208E0,-3.853287048E0,-9.038055267E0,7.129673767E-1,9.851019570E0
7.199327208E0,-3.800147552E0,-9.069489899E0,7.110214233E-1,9.859123689E0
7.209318208E0,-3.788920898E0,-9.066645813E0,7.584727478E-1,9.855722641E0
7.219310208E0,-3.786825256E0,-8.999585266E0,7.813751221E-1,9.795056282E0
7.229301208E0,-3.844455414E0,-8.978030090E0,7.556286621E-1,9.795704998E0
7.239292208E0,-3.902983704E0,-8.985963593E0,6.869215393E-1,9.821032770E0
7.249283208E0,-3.953129425E0,-9.023385773E0,6.173162842E-1,9.870653598E0
7.259274208E0,-3.985312500E0,-9.029073944E0,6.225553894E-1,9.889108515E0
7.269265208E0,-3.963907013E0,-9.030870209E0,6.730004883E-1,9.885449165E0
7.279256208E0,-3.921994171E0,-9.010811920E0,7.351213074E-1,9.854804568E0
7.289247208E0,-3.874692535E0,-9.019044800E0,7.815248108E-1,9.847192106E0
7.299238208E0,-3.825444946E0,-8.971892853E0,7.683522034E-1,9.783621799E0
7.309230208E0,-3.769161987E0,-8.909622345E0,7.679031372E-1,9.704515838E0
7.319221208E0,-3.777245178E0,-8.936117249E0,7.584727478E-1,9.731241109E0
7.329212208E0,-3.809128876E0,-8.942703552E0,7.319778442E-1,9.747676707E0
7.339203208E0,-3.887416077E0,-8.962761841E0,6.770420837E-1,9.792930591E0
7.349194208E0,-3.983815613E0,-8.991053009E0,6.900650024E-1,9.858296544E0
7.359185208E0,-4.046086121E0,-8.931027832E0,7.613168335E-1,9.834311077E0
7.369176208E0,-4.067192230E0,-8.886570282E0,8.355624390E-1,9.808738380E0
7.379167208E0,-4.071682892E0,-8.808732147E0,8.449928284E-1,9.740963838E0
7.389159208E0,-4.013154602E0,-8.759035492E0,7.604187012E-1,9.664592553E0
7.399150208E0,-3.949237518E0,-8.890162811E0,6.331832886E-1,9.748455922E0
7.409141208E0,-3.914210358E0,-9.020990753E0,5.439688110E-1,9.848615078E0
7.419132208E0,-3.872147827E0,-9.065597992E0,5.424719238E-1,9.872835030E0
7.429123208E0,-3.826193390E0,-9.021439819E0,5.752537537E-1,9.816162649E0
7.439114208E0,-3.817062378E0,-8.994645538E0,6.248007202E-1,9.791015754E0
7.449105208E0,-3.845353546E0,-9.002429352E0,6.427633667E-1,9.810383421E0
7.459096208E0,-3.850592651E0,-8.983568573E0,6.116281128E-1,9.793143368E0
7.469088208E0,-3.873345337E0,-8.965306549E0,6.024971008E-1,9.784811106E0
7.479079208E0,-3.868854675E0,-8.940607910E0,6.388714600E-1,9.762718015E0
7.489070208E0,-3.900738373E0,-8.902137909E0,6.581813049E-1,9.741510244E0
7.499061208E0,-3.889661407E0,-8.925040283E0,6.728507996E-1,9.759023420E0
7.509052208E0,-3.883673859E0,-9.022787018E0,6.586303711E-1,9.845171516E0
7.519043208E0,-3.907773743E0,-9.140142975E0,6.336323547E-1,9.960642509E0
7.529034208E0,-3.905528412E0,-9.150920563E0,5.674699402E-1,9.965667135E0
7.539025208E0,-3.901636505E0,-9.070537720E0,5.807922363E-1,9.891144603E0
7.549016208E0,-3.899391174E0,-9.004824371E0,6.634204102E-1,9.835254960E0
7.559008208E0,-3.893253937E0,-8.942404175E0,7.843688965E-1,9.784643745E0
7.568999208E0,-3.939507751E0,-8.963210907E0,8.834628296E-1,9.830532928E0
7.578990208E0,-3.923940125E0,-8.902886353E0,8.222401428E-1,9.763952599E0
7.588981208E0,-3.902085571E0,-8.891360321E0,7.536827087E-1,9.739127157E0
7.598972208E0,-3.947590942E0,-8.970695343E0,7.382647705E-1,9.828625746E0
7.608963208E0,-3.991300049E0,-9.064699860E0,7.610174561E-1,9.933700579E0
7.618954167E0,-4.057163086E0,-9.067543945E0,8.126600647E-1,9.967012686E0
7.628945167E0,-4.113595734E0,-9.013805695E0,8.526269531E-1,9.944713957E0
7.638937167E0,-4.109554138E0,-8.893006897E0,8.646020508E-1,9.834711159E0
7.648928167E0,-4.083957367E0,-8.839418335E0,8.548722839E-1,9.774703622E0
7.658919167E0,-4.061953125E0,-8.817863159E0,8.373587036E-1,9.744503245E0
7.668910167E0,-3.951782227E0,-8.786129150E0,7.848179626E-1,9.665846442E0
7.678901167E0,-3.888014832E0,-8.882229309E0,7.189549255E-1,9.722528118E0
7.688892167E0,-3.809428253E0,-8.993298340E0,6.096821594E-1,9.785850550E0
7.698883167E0,-3.751349030E0,-9.038354645E0,5.306465149E-1,9.800309176E0
7.708874167E0,-3.677702179E0,-9.034013672E0,5.072950745E-1,9.767100114E0
7.718865167E0,-3.649111633E0,-9.060807953E0,5.625302124E-1,9.784206494E0
7.728857167E0,-3.626808014E0,-9.088799744E0,6.161187744E-1,9.805081310E0
7.738848167E0,-3.546275482E0,-9.110055542E0,6.292913818E-1,9.796182390E0
7.748839167E0,-3.453019409E0,-9.102122040E0,6.704557800E-1,9.758149395E0
7.758830167E0,-3.440894623E0,-9.128766632E0,7.250921631E-1,9.782632298E0
7.768821167E0,-3.469934235E0,-9.168134766E0,7.685018921E-1,9.832890411E0
7.778812167E0,-3.511996765E0,-9.195078735E0,7.336244202E-1,9.870248174E0
7.788803167E0,-3.651506653E0,-9.157955933E0,6.442602539E-1,9.880117862E0
7.798794167E0,-3.817062378E0,-9.076674957E0,6.033952332E-1,9.865093983E0
7.808786167E0,-3.984564056E0,-8.951834564E0,5.908213806E-1,9.816372176E0
7.818777167E0,-4.094136200E0,-8.846603394E0,5.999523926E-1,9.766487890E0
7.828768167E0,-4.162543945E0,-8.789721680E0,6.827302551E-1,9.749466647E0
7.838759167E0,-4.215384064E0,-8.860973511E0,7.930508423E-1,9.844554028E0
7.848750167E0,-4.244573364E0,-8.969198456E0,8.637039185E-1,9.960366883E0
7.858741167E0,-4.242627411E0,-8.979377289E0,8.586145020E-1,9.968265782E0
7.868732167E0,-4.170776825E0,-8.871900787E0,7.515870667E-1,9.832135375E0
7.878723167E0,-4.085603943E0,-8.808133392E0,6.730004883E-1,9.732846608E0
7.888714167E0,-4.064946899E0,-8.863069153E0,7.116201782E-1,9.776716800E0
7.898706167E0,-4.065545654E0,-8.915310516E0,7.888595581E-1,9.830245291E0
7.908697167E0,-4.122127991E0,-8.895252228E0,8.881031799E-1,9.844093591E0
7.918688167E0,-4.210743713E0,-8.819958801E0,9.322613525E-1,9.817899322E0
7.928679167E0,-4.287384338E0,-8.745264130E0,9.171427917E-1,9.782763416E0
7.938670167E0,-4.370910645E0,-8.718469849E0,8.806187439E-1,9.792449425E0
7.948661167E0,-4.447102203E0,-8.741072845E0,8.527766418E-1,9.844302946E0
7.958652167E0,-4.418062592E0,-8.786278839E0,7.893086243E-1,9.866153303E0
7.968643167E0,-4.340972900E0,-8.874146118E0,6.929090881E-1,9.903264010E0
7.978635167E0,-4.208947449E0,-8.919801178E0,6.472540283E-1,9.884180768E0
7.988626167E0,-4.085005188E0,-8.956774292E0,6.658154297E-1,9.866832485E0
7.998617167E0,-3.989503784E0,-9.010512543E0,7.110214233E-1,9.879829360E0
8.008608167E0,-3.925736389E0,-9.042246552E0,7.646099854E-1,9.887277549E0
8.018599167E0,-3.859424286E0,-9.029972076E0,8.087681580E-1,9.853408418E0
8.028590167E0,-3.764671326E0,-9.023385773E0,8.038284302E-1,9.810218200E0
8.038581167E0,-3.676055603E0,-9.083710327E0,7.887098694E-1,9.831034603E0
8.048572167E0,-3.587589569E0,-9.126970367E0,7.385641479E-1,9.834524086E0
8.058563167E0,-3.532504120E0,-9.159901886E0,7.041357422E-1,9.842672150E0
8.068555167E0,-3.477568359E0,-9.177864532E0,7.484436035E-1,9.843111647E0
8.078546167E0,-3.395688629E0,-9.170829163E0,7.887098694E-1,9.811058661E0
8.088537167E0,-3.351231079E0,-9.117240601E0,7.238946533E-1,9.740577467E0
8.098528167E0,-3.458408203E0,-9.036408691E0,6.191125488E-1,9.695389094E0
8.108519167E0,-3.638932800E0,-9.006620636E0,6.518943787E-1,9.735810880E0
8.118510167E0,-3.732039185E0,-8.997339935E0,7.530839539E-1,9.769717387E0
8.128501167E0,-3.743714905E0,-8.971144409E0,8.247848511E-1,9.755875325E0
8.138492167E0,-3.794160004E0,-9.013506317E0,8.725355530E-1,9.818363639E0
8.148483167E0,-3.832180939E0,-8.990454254E0,8.306227112E-1,9.808354221E0
8.158475167E0,-3.860771484E0,-8.930578766E0,7.773335266E-1,9.760381189E0
8.168466167E0,-3.981420593E0,-8.898246002E0,7.734416199E-1,9.778992985E0
8.178457167E0,-4.062252502E0,-8.867110748E0,6.608757019E-1,9.775699725E0
8.188448167E0,-4.135749664E0,-8.834777985E0,5.408253479E-1,9.769862813E0
8.198439167E0,-4.277205505E0,-8.836723938E0,6.129753113E-1,9.836560152E0
8.208430167E0,-4.349654846E0,-8.860075378E0,6.420149231E-1,9.891037163E0
8.218421167E0,-4.409829712E0,-8.921597443E0,7.164102173E-1,9.977712294E0
8.228412167E0,-4.431384888E0,-8.938661957E0,7.334747314E-1,1.000374104E1
8.238404167E0,-4.427942047E0,-8.866212616E0,7.153623962E-1,9.936203515E0
8.248395167E0,-4.393813019E0,-8.841214600E0,7.125183105E-1,9.898502452E0
8.258386167E0,-4.389472046E0,-8.830287323E0,6.709048462E-1,9.883903701E0
8.268377167E0,-4.328548737E0,-8.779842224E0,6.382727051E-1,9.809656247E0
8.278368167E0,-4.241280212E0,-8.772058411E0,6.307882690E-1,9.763982816E0
8.288359167E0,-4.118385773E0,-8.806037750E0,6.261479187E-1,9.741635563E0
8.298350167E0,-3.996389465E0,-8.905281372E0,5.914201355E-1,9.778800686E0
8.308341167E0,-3.879482574E0,-9.032816162E0,5.525010681E-1,9.846187602E0
8.318332167E0,-3.808230743E0,-9.081614685E0,4.776567078E-1,9.859335810E0
8.328324167E0,-3.800297241E0,-9.082063751E0,4.023632813E-1,9.853326206E0
8.338315167E0,-3.875590668E0,-9.098080444E0,3.821553040E-1,9.896530375E0
8.348306167E0,-3.949237518E0,-9.089398499E0,4.328997803E-1,9.919730050E0
8.358297167E0,-3.969445496E0,-9.038654022E0,5.031037903E-1,9.884678927E0
8.368288167E0,-3.976181488E0,-8.873247986E0,5.945635986E-1,9.741563269E0
8.378279167E0,-3.952231293E0,-8.731792145E0,6.457571411E-1,9.606317116E0
8.388270167E0,-3.936663666E0,-8.772657166E0,6.379733276E-1,9.636588843E0
8.398261167E0,-3.930227051E0,-8.930429077E0,6.087840271E-1,9.775984153E0
8.408252167E0,-3.946543121E0,-9.037157135E0,5.550457764E-1,9.876916903E0
8.418244167E0,-3.958518219E0,-8.975784760E0,5.141807556E-1,9.823388437E0
8.428235167E0,-3.958967285E0,-8.874894562E0,4.778063965E-1,9.729618410E0
8.438226167E0,-4.009412384E0,-8.842561798E0,4.257147217E-1,9.718411385E0
8.448217167E0,-4.051025848E0,-8.836574249E0,3.969744873E-1,9.729000135E0
8.458208167E0,-4.095034332E0,-8.860973511E0,3.823049927E-1,9.768946455E0
8.468199167E0,-4.111649780E0,-8.863518219E0,4.320016479E-1,9.780298797E0
8.478190167E0,-4.139192505E0,-8.870254211E0,5.243595886E-1,9.802513828E0
8.488181167E0,-4.077371063E0,-8.872649231E0,6.078858948E-1,9.783577282E0
8.498172167E0,-3.984414368E0,-8.825048218E0,5.864804077E-1,9.700566642E0
8.508164167E0,-3.972588959E0,-8.826245728E0,5.200186157E-1,9.693012743E0
8.518155167E0,-4.082759857E0,-8.861272888E0,4.888833618E-1,9.768832693E0
8.528146167E0,-4.244124298E0,-8.849447479E0,5.474116516E-1,9.829800164E0
8.538137167E0,-4.367018738E0,-8.805438995E0,5.950126648E-1,9.846859836E0
8.548128167E0,-4.448599091E0,-8.746611328E0,6.122268677E-1,9.831991931E0
8.558119167E0,-4.491260376E0,-8.740623779E0,5.848338318E-1,9.844386950E0
8.568110167E0,-4.424499207E0,-8.754245453E0,5.608836365E-1,9.824845909E0
8.578101167E0,-4.337679749E0,-8.806935883E0,5.460644531E-1,9.832383822E0
8.588093167E0,-4.265529785E0,-8.895701294E0,5.472619629E-1,9.880675155E0
8.598084167E0,-4.227359161E0,-8.923842773E0,5.319937134E-1,9.888809465E0
8.608075167E0,-4.218527527E0,-8.868008881E0,5.520520020E-1,9.835767251E0
8.618066167E0,-4.242477722E0,-8.791817322E0,5.903723145E-1,9.779734583E0
8.628057292E0,-4.239334259E0,-8.762029266E0,5.993536377E-1,9.752145231E0
8.638048292E0,-4.254003754E0,-8.840017090E0,5.827381897E-1,9.827615880E0
8.648039292E0,-4.232897644E0,-8.928632812E0,5.421725464E-1,9.896052619E0
8.658030292E0,-4.168531494E0,-8.932524719E0,4.831951904E-1,9.869150433E0
8.668021292E0,-4.130360870E0,-8.949140167E0,4.661306763E-1,9.867333402E0
8.678013292E0,-4.116140442E0,-8.942703552E0,4.731660461E-1,9.855883779E0
8.688004292E0,-4.080215149E0,-8.947493591E0,4.514611816E-1,9.844268100E0
8.697995292E0,-4.037553864E0,-8.927584991E0,4.899311829E-1,9.810384679E0
8.707986292E0,-3.990551605E0,-8.897647247E0,5.662724304E-1,9.767972825E0
8.717977292E0,-3.951033783E0,-8.926537170E0,6.285429382E-1,9.782065223E0
8.727968292E0,-3.936214600E0,-8.958271179E0,7.023394775E-1,9.810080970E0
8.737959292E0,-3.917054443E0,-8.972790985E0,6.861730957E-1,9.814536519E0
8.747950292E0,-3.934568024E0,-8.976533203E0,6.518943787E-1,9.822623894E0
8.757941292E0,-3.994443512E0,-8.950038300E0,6.478527832E-1,9.822345838E0
8.767933292E0,-4.057462463E0,-8.916957092E0,6.659651184E-1,9.819299108E0
8.777924292E0,-4.070186005E0,-8.880882111E0,7.235952759E-1,9.795921156E0
8.787915292E0,-4.084256744E0,-8.855884094E0,8.336164856E-1,9.787888061E0
8.797906292E0,-4.121229858E0,-8.896449738E0,8.408015442E-1,9.840645340E0
8.807897292E0,-4.105811920E0,-8.930429077E0,7.679031372E-1,9.859002498E0
8.817888292E0,-4.116888885E0,-8.923693085E0,6.617738342E-1,9.849823195E0
8.827879292E0,-4.159699860E0,-8.941655731E0,6.206094360E-1,9.881369653E0
8.837870292E0,-4.209246826E0,-8.945397949E0,6.509962463E-1,9.907658625E0
8.847861292E0,-4.278253326E0,-8.920250244E0,7.424560547E-1,9.920965524E0
8.857853292E0,-4.385430450E0,-8.900641022E0,8.422984314E-1,9.958055909E0
8.867844292E0,-4.428241425E0,-8.819809113E0,8.764274597E-1,9.907899878E0
8.877835292E0,-4.380790100E0,-8.693771210E0,8.840615845E-1,9.775200491E0
8.887826292E0,-4.340224457E0,-8.662486267E0,8.506809998E-1,9.726246698E0
8.897817292E0,-4.258195038E0,-8.719367981E0,7.848179626E-1,9.735273093E0
8.907808292E0,-4.177961884E0,-8.832233276E0,7.598199463E-1,9.800052882E0
8.917799292E0,-4.119134216E0,-8.893306274E0,7.620652771E-1,9.830508973E0
8.927790292E0,-4.075125732E0,-8.894503784E0,7.872129822E-1,9.815220404E0
8.937781292E0,-4.053869934E0,-8.886270905E0,7.830216980E-1,9.798611892E0
8.947773292E0,-4.011208649E0,-8.858129425E0,7.399113464E-1,9.752113644E0
8.957764292E0,-4.013453979E0,-8.882378998E0,6.168672180E-1,9.766524186E0
8.967755292E0,-4.041445770E0,-8.975485382E0,4.770579529E-1,9.854958450E0
8.977746292E0,-4.036356354E0,-9.042396240E0,4.005670166E-1,9.910477098E0
8.987737292E0,-4.008214874E0,-9.035809937E0,4.595443726E-1,9.895596431E0
8.997728292E0,-3.968547363E0,-8.971593475E0,6.177653503E-1,9.829572305E0
9.007719292E0,-3.922143860E0,-8.918154602E0,7.502398682E-1,9.771363969E0
9.017710292E0,-3.870501251E0,-8.884774017E0,7.891589355E-1,9.723310193E0
9.027701292E0,-3.825444946E0,-8.938212891E0,7.418572998E-1,9.750693871E0
9.037693292E0,-3.779041443E0,-9.024433594E0,6.412664795E-1,9.804732460E0
9.047684292E0,-3.694766693E0,-9.062604218E0,5.683680725E-1,9.803322824E0
9.057675292E0,-3.648512878E0,-9.068891144E0,5.212161255E-1,9.789182757E0
9.067666292E0,-3.629652100E0,-9.068891144E0,5.688171387E-1,9.784820585E0
9.077657292E0,-3.648213501E0,-9.066196747E0,6.045927429E-1,9.791369546E0
9.087648292E0,-3.626808014E0,-9.020242310E0,5.607339478E-1,9.738220076E0
9.097639292E0,-3.615581360E0,-8.987610168E0,5.318440247E-1,9.702186515E0
9.107630292E0,-3.653751984E0,-9.052126007E0,5.393284607E-1,9.776592658E0
9.117621292E0,-3.690725098E0,-9.078620911E0,6.048921204E-1,9.818793402E0
9.127613292E0,-3.705993347E0,-9.074429626E0,6.741979980E-1,9.825182068E0
9.137604292E0,-3.727847900E0,-9.077872467E0,6.738986206E-1,9.836602963E0
9.147595292E0,-3.734284515E0,-9.060807953E0,6.665638733E-1,9.822801484E0
9.157586292E0,-3.754342804E0,-9.016949158E0,6.153703308E-1,9.786681902E0
9.167577292E0,-3.765569458E0,-8.993747406E0,5.456153870E-1,9.765485236E0
9.177568292E0,-3.774550781E0,-8.992549896E0,5.147795105E-1,9.766175566E0
9.187559292E0,-3.799698486E0,-9.039851532E0,5.342390442E-1,9.820490602E0
9.197550292E0,-3.791914673E0,-9.061406708E0,5.996530151E-1,9.841102182E0
9.207541292E0,-3.783981171E0,-9.062005463E0,6.418652344E-1,9.841262494E0
9.217533292E0,-3.777694244E0,-9.018745422E0,6.224057007E-1,9.797761563E0
9.227524292E0,-3.788621521E0,-8.978778534E0,6.206094360E-1,9.765104867E0
9.237515292E0,-3.837569733E0,-8.938362579E0,6.319857788E-1,9.747854794E0
9.247506292E0,-3.874243469E0,-8.931925964E0,6.032455444E-1,9.754638337E0
9.257497292E0,-3.948489075E0,-8.925189972E0,6.135740662E-1,9.778857558E0
9.267488292E0,-4.022584991E0,-8.920100555E0,6.695576477E-1,9.808042179E0
9.277479292E0,-4.102818146E0,-8.831784210E0,7.322772217E-1,9.765744160E0
9.287470292E0,-4.206702118E0,-8.806486816E0,7.876620483E-1,9.791371929E0
9.297461292E0,-4.291276245E0,-8.839118958E0,7.725434875E-1,9.856059009E0
9.307452292E0,-4.355642395E0,-8.898545380E0,7.264393616E-1,9.933954132E0
9.317444292E0,-4.379143524E0,-8.910819855E0,6.960525513E-1,9.953094878E0
9.327435292E0,-4.397555237E0,-8.865164795E0,7.301815796E-1,9.922842538E0
9.337426292E0,-4.407734070E0,-8.812624054E0,7.644602966E-1,9.883059339E0
9.347417292E0,-4.405638428E0,-8.742270355E0,8.331674194E-1,9.825024624E0
9.357408292E0,-4.377047882E0,-8.775351563E0,8.192463684E-1,9.840554244E0
9.367399292E0,-4.364623718E0,-8.882828064E0,8.189469910E-1,9.931024559E0
9.377390292E0,-4.256698151E0,-8.951235809E0,8.208929443E-1,9.945751198E0
9.387381292E0,-4.140689392E0,-8.943751373E0,7.836204529E-1,9.886862914E0
9.397372292E0,-4.080813904E0,-8.912616119E0,7.726931763E-1,9.832844093E0
9.407364292E0,-4.005520477E0,-8.887019348E0,7.954458618E-1,9.780390652E0
9.417355292E0,-4.011508026E0,-8.887019348E0,8.126600647E-1,9.784259089E0
9.427346292E0,-4.040547638E0,-8.900491333E0,7.810757446E-1,9.805857969E0
9.437337292E0,-4.067940674E0,-8.890911255E0,7.282356262E-1,9.804426112E0
9.447328292E0,-4.053720245E0,-8.900641022E0,6.676116943E-1,9.803048699E0
9.457319292E0,-3.982169037E0,-8.930878143E0,6.816824341E-1,9.802190857E0
9.467310292E0,-3.889811096E0,-8.933273163E0,7.303312683E-1,9.770741196E0
9.477301292E0,-3.823049927E0,-8.968300323E0,7.758366394E-1,9.779981796E0
9.487292292E0,-3.781286774E0,-9.029073944E0,7.900570679E-1,9.820717699E0
9.497284292E0,-3.761378174E0,-9.031468964E0,7.089257812E-1,9.809076061E0
9.507275292E0,-3.793710938E0,-9.012009430E0,5.921685791E-1,9.795877718E0
9.517266292E0,-3.859424286E0,-8.954229584E0,5.301974487E-1,9.764962498E0
9.527257292E0,-3.901037750E0,-8.952882385E0,5.066963196E-1,9.779005046E0
9.537248292E0,-3.940405884E0,-8.982670441E0,5.827381897E-1,9.826227688E0
9.547239292E0,-4.001478882E0,-9.003477173E0,6.944059753E-1,9.877076192E0
9.557230292E0,-4.013154602E0,-9.010512543E0,7.635621643E-1,9.893319631E0
9.567221292E0,-3.973936157E0,-8.989556122E0,7.749385071E-1,9.859250354E0
9.577212292E0,-3.907025299E0,-9.006770325E0,7.637118530E-1,9.847335384E0
9.587204292E0,-3.884272614E0,-9.042096863E0,7.785310364E-1,9.871838734E0
9.597195292E0,-3.882925415E0,-9.019044800E0,7.608677673E-1,9.848817119E0
9.607186292E0,-3.876488800E0,-8.947044525E0,7.649093628E-1,9.780687986E0
9.617177292E0,-3.930676117E0,-8.859027557E0,7.776329041E-1,9.723029206E0
9.627167917E0,-4.056564331E0,-8.875343628E0,7.860154724E-1,9.790059193E0
9.637158917E0,-4.197870483E0,-8.884774017E0,7.614665222E-1,9.856021368E0
9.647149917E0,-4.249513092E0,-8.805438995E0,7.191046143E-1,9.803633452E0
9.657140917E0,-4.238885193E0,-8.771459656E0,6.764433289E-1,9.765460959E0
9.667131917E0,-4.188889160E0,-8.783734131E0,6.433621216E-1,9.752676171E0
9.677123917E0,-4.087400208E0,-8.814270630E0,6.234535217E-1,9.735856485E0
9.687114917E0,-4.002227325E0,-8.857830048E0,6.192622375E-1,9.739736261E0
9.697105917E0,-3.956721954E0,-8.899593201E0,6.520440674E-1,9.761330300E0
9.707096917E0,-3.913910980E0,-8.983269196E0,6.518943787E-1,9.820529053E0
9.717087917E0,-3.920796661E0,-9.039701843E0,6.129753113E-1,9.872415845E0
9.727078917E0,-3.877386932E0,-9.078022156E0,5.830375671E-1,9.888607004E0
9.737069917E0,-3.833977203E0,-9.043294373E0,5.989045715E-1,9.840693115E0
9.747060917E0,-3.833528137E0,-8.985065460E0,6.346801758E-1,9.789287933E0
9.757051917E0,-3.820804596E0,-8.925489349E0,7.316784668E-1,9.736439866E0
9.767042917E0,-3.850143585E0,-8.920399933E0,8.120613098E-1,9.749696619E0
9.777034917E0,-3.884122925E0,-8.928333435E0,8.193960571E-1,9.771026493E0
9.787025917E0,-3.894601135E0,-8.947493591E0,7.589218140E-1,9.787825187E0
9.797016917E0,-3.934568024E0,-8.988358612E0,7.405101013E-1,9.839703821E0
9.807007917E0,-3.970643005E0,-9.030720520E0,6.917115784E-1,9.889306543E0
9.816998917E0,-4.038901062E0,-9.062454529E0,6.379733276E-1,9.942223788E0
9.826989917E0,-4.036655731E0,-8.972790985E0,6.810836792E-1,9.862527188E0
9.836980917E0,-4.019142151E0,-8.866961060E0,7.997868347E-1,9.768119627E0
9.846971917E0,-4.021986237E0,-8.863967285E0,8.984317017E-1,9.775145464E0
9.856962917E0,-4.014501801E0,-8.891659698E0,9.160949707E-1,9.798829874E0
9.866954917E0,-3.977678375E0,-8.917555847E0,8.752299500E-1,9.803609285E0
9.876945917E0,-4.023932190E0,-8.937015381E0,8.644523621E-1,9.839184523E0
9.886936917E0,-4.042942657E0,-8.924441528E0,8.587641907E-1,9.835065727E0
9.896927917E0,-4.140539703E0,-8.962013397E0,8.536747742E-1,9.909112664E0
9.906918917E0,-4.130360870E0,-8.872649231E0,7.807763672E-1,9.818013905E0
9.916909917E0,-4.104913788E0,-8.813222809E0,7.408094788E-1,9.750487791E0
9.926900917E0,-4.118385773E0,-8.872798920E0,7.620652771E-1,9.811646423E0
9.936891917E0,-4.079017639E0,-8.860973511E0,8.238867188E-1,9.789485471E0
9.946882917E0,-4.091591492E0,-8.885672150E0,8.863069153E-1,9.822516502E0
9.956874917E0,-4.073030090E0,-8.897347870E0,8.916957092E-1,9.825858460E0
9.966865917E0,-4.078418884E0,-8.840017090E0,8.411009216E-1,9.771737486E0
9.976856917E0,-4.123175812E0,-8.829239502E0,8.306227112E-1,9.779876433E0
9.986847917E0,-4.212090912E0,-8.869505768E0,8.656498718E-1,9.856936244E0
9.996838917E0,-4.349505157E0,-8.871751099E0,8.342152405E-1,9.915748975E0
1.000682992E1,-4.443359985E0,-8.833131409E0,7.999365234E-1,9.920058311E0
1.001682092E1,-4.479434967E0,-8.805139618E0,8.668473816E-1,9.917017984E0
1.002681192E1,-4.458179169E0,-8.767268372E0,9.247769165E-1,9.879046945E0
1.003680292E1,-4.342918854E0,-8.763975220E0,9.134005737E-1,9.823568925E0
1.004679392E1,-4.176165619E0,-8.825946350E0,9.141490173E-1,9.806801552E0
1.005678592E1,-4.067042542E0,-8.915609894E0,8.825646973E-1,9.839098295E0
1.006677692E1,-3.978127441E0,-8.900042267E0,8.205935669E-1,9.783129565E0
1.007676792E1,-3.903732147E0,-8.896599426E0,8.045768738E-1,9.748638365E0
1.008675892E1,-3.887266388E0,-8.953930206E0,8.104147339E-1,9.794921039E0
1.009674992E1,-3.899840240E0,-8.967851257E0,7.828720093E-1,9.810402574E0
1.010674092E1,-3.880530396E0,-8.975335693E0,6.968009949E-1,9.803096377E0
1.011673192E1,-3.859424286E0,-8.988508301E0,6.695576477E-1,9.804934713E0
1.012672292E1,-3.855682068E0,-8.998687134E0,6.869215393E-1,9.813995901E0
1.013671392E1,-3.836222534E0,-8.971443787E0,6.985972595E-1,9.782200421E0
1.014670592E1,-3.797004089E0,-8.921896820E0,6.849755859E-1,9.720425632E0
1.015669692E1,-3.790268097E0,-8.901389465E0,6.882687378E-1,9.699205149E0
1.016668792E1,-3.820056152E0,-8.975485382E0,7.402107239E-1,9.782641707E0
1.017667892E1,-3.862418060E0,-9.041498108E0,7.725434875E-1,9.862240351E0
1.018666992E1,-3.923491058E0,-9.029073944E0,7.595205688E-1,9.873947026E0
1.019666092E1,-3.953877869E0,-9.007369080E0,7.698490906E-1,9.867041885E0
1.020665192E1,-4.017046509E0,-9.003327484E0,7.752378845E-1,9.889264999E0
1.021664292E1,-4.019740906E0,-8.930429077E0,7.765850830E-1,9.824152118E0
1.022663392E1,-4.013903046E0,-8.823401642E0,7.828720093E-1,9.725056441E0
1.023662492E1,-4.025129700E0,-8.802744598E0,8.129594421E-1,9.713438352E0
1.024661692E1,-4.046385498E0,-8.825048218E0,8.129594421E-1,9.742464509E0
1.025660792E1,-4.063300323E0,-8.858279114E0,8.137078857E-1,9.779654334E0
1.026659892E1,-4.050277405E0,-8.903036041E0,8.178991699E-1,9.815179920E0
1.027658992E1,-4.047732697E0,-8.942553864E0,8.428971863E-1,9.852100550E0
1.028658092E1,-4.109254761E0,-8.970395966E0,8.545729065E-1,9.903750467E0
1.029657192E1,-4.164489899E0,-8.967102814E0,8.575666809E-1,9.924078275E0
1.030656292E1,-4.194577332E0,-8.880732422E0,9.038204956E-1,9.863000498E0
1.031655392E1,-4.204307098E0,-8.858279114E0,9.301657104E-1,9.849391620E0
1.032654492E1,-4.241878967E0,-8.834927673E0,9.397457886E-1,9.845435811E0
1.033653592E1,-4.264781342E0,-8.854087830E0,9.434880066E-1,9.872861835E0
1.034652792E1,-4.243974609E0,-8.854237518E0,9.662406921E-1,9.866228438E0
1.035651892E1,-4.204905853E0,-8.785530396E0,9.892927551E-1,9.790070363E0
1.036650992E1,-4.219725037E0,-8.759783936E0,9.939331055E-1,9.773832258E0
1.037650092E1,-4.308041382E0,-8.754395142E0,1.018631744E0,9.810008434E0
1.038649192E1,-4.407883759E0,-8.690927124E0,1.025966492E0,9.798686685E0
1.039648292E1,-4.471800842E0,-8.577163696E0,9.939331055E-1,9.723818327E0
1.040647392E1,-4.548890533E0,-8.656798096E0,9.610015869E-1,9.826295457E0
1.041646492E1,-4.563110962E0,-8.813073120E0,9.190887451E-1,9.966793045E0
1.042645592E1,-4.467459869E0,-8.902437286E0,8.714877319E-1,9.998553805E0
1.043644792E1,-4.348157959E0,-8.873098297E0,8.569679260E-1,9.918303537E0
1.044643892E1,-4.261637878E0,-8.850345612E0,8.575666809E-1,9.860304025E0
1.045642992E1,-4.182003479E0,-8.860374756E0,8.514294434E-1,9.834649257E0
1.046642092E1,-4.131109314E0,-8.876541138E0,8.042774963E-1,9.823742109E0
1.047641192E1,-4.064797211E0,-8.897946625E0,7.194039917E-1,9.808851747E0
1.048640292E1,-4.013304291E0,-8.908574524E0,6.629713440E-1,9.793305999E0
1.049639392E1,-3.906426544E0,-8.902886353E0,6.900650024E-1,9.746678586E0
1.050638492E1,-3.820505219E0,-8.925938416E0,7.065307617E-1,9.734876601E0
1.051637592E1,-3.748205566E0,-9.031169586E0,7.119195557E-1,9.803973608E0
1.052636692E1,-3.679648132E0,-9.061406708E0,6.870712280E-1,9.804130190E0
1.053635892E1,-3.658242645E0,-9.084159393E0,6.688092041E-1,9.815905301E0
1.054634992E1,-3.667822723E0,-9.069190521E0,6.840774536E-1,9.806686607E0
1.055634092E1,-3.665577393E0,-9.015751648E0,7.243437195E-1,9.759349836E0
1.056633192E1,-3.701802063E0,-8.944050751E0,7.538323975E-1,9.709152673E0
1.057632292E1,-3.774700470E0,-8.912765808E0,7.783813477E-1,9.710388021E0
1.058631392E1,-3.819607086E0,-8.911119232E0,7.717950439E-1,9.725899025E0
1.059630492E1,-3.819607086E0,-8.923543396E0,7.146139526E-1,9.732918274E0
1.060629592E1,-3.829336853E0,-8.979526978E0,6.806346130E-1,9.785652199E0
1.061628692E1,-3.896098022E0,-9.019194489E0,6.921606445E-1,9.849088048E0
1.062627929E1,-3.973187714E0,-9.043893127E0,7.116201782E-1,9.903768312E0
1.063627029E1,-4.026476898E0,-9.014404449E0,7.105723572E-1,9.898328994E0
1.064626129E1,-4.038302307E0,-8.909322968E0,7.400610352E-1,9.809771231E0
1.065625229E1,-4.048032074E0,-8.851692810E0,8.042774963E-1,9.766570102E0
1.066624329E1,-4.034410400E0,-8.843609619E0,8.822653198E-1,9.760342743E0
1.067623429E1,-4.013004913E0,-8.878786469E0,9.289682007E-1,9.787749461E0
1.068622529E1,-3.987408142E0,-8.914262695E0,9.461824036E-1,9.811155092E0
1.069621629E1,-4.012705536E0,-8.969497833E0,9.071136475E-1,9.867955830E0
1.070620729E1,-4.034111023E0,-8.961264954E0,8.662486267E-1,9.865531308E0
1.071619829E1,-4.061204681E0,-8.915609894E0,8.587641907E-1,9.834579766E0
1.072619029E1,-4.131558380E0,-8.876990204E0,8.554710388E-1,9.828660154E0
1.073618129E1,-4.163442078E0,-8.860973511E0,8.370593262E-1,9.826076013E0
1.074617229E1,-4.149371338E0,-8.869805145E0,7.906558228E-1,9.824248696E0
1.075616329E1,-4.101321259E0,-8.917705536E0,8.011340332E-1,9.848254862E0
1.076615429E1,-4.089944916E0,-8.979077911E0,8.178991699E-1,9.900527693E0
1.077614529E1,-4.013004913E0,-8.980425110E0,8.175997925E-1,9.870193160E0
1.078613629E1,-3.933669891E0,-8.973689117E0,7.834707642E-1,9.829276760E0
1.079612729E1,-3.900738373E0,-8.946595459E0,8.318202209E-1,9.795369061E0
1.080611829E1,-3.864064636E0,-8.877139893E0,8.780740356E-1,9.721400218E0
1.081611029E1,-3.873045959E0,-8.880133667E0,8.872050476E-1,9.728534923E0
1.082610129E1,-3.900139618E0,-8.916508026E0,8.300239563E-1,9.767504502E0
1.083609229E1,-3.912563782E0,-8.947792969E0,7.924520874E-1,9.797914812E0
1.084608329E1,-3.916006622E0,-8.961863708E0,8.098159790E-1,9.813557506E0
1.085607429E1,-3.905977478E0,-8.981472931E0,7.999365234E-1,9.826668536E0
1.086606529E1,-3.915856934E0,-8.972192230E0,7.764353943E-1,9.820235275E0
1.087605629E1,-3.952979736E0,-8.977581024E0,7.512876892E-1,9.838060939E0
1.088604729E1,-4.005670166E0,-8.929830322E0,7.372169495E-1,9.814823070E0
1.089603829E1,-4.048181763E0,-8.878487091E0,7.744894409E-1,9.788520956E0
1.090602929E1,-4.044738922E0,-8.838071136E0,7.964936829E-1,9.752221108E0
1.091602129E1,-4.034859467E0,-8.827293549E0,8.153544617E-1,9.739918131E0
1.092601229E1,-4.023483124E0,-8.861721954E0,8.056246948E-1,9.765631756E0
1.093600329E1,-4.002227325E0,-8.911867676E0,7.963439941E-1,9.801702546E0
1.094599429E1,-4.014052734E0,-8.960965576E0,8.062234497E-1,9.851980494E0
1.095598529E1,-4.050427094E0,-8.969797211E0,8.138575745E-1,9.875504331E0
1.096597629E1,-4.096231842E0,-8.948092346E0,8.030799866E-1,9.873824457E0
1.097596729E1,-4.150568848E0,-8.936566315E0,7.488926697E-1,9.881815597E0
1.098595829E1,-4.204456787E0,-8.914562073E0,6.722520447E-1,9.879210324E0
1.099594929E1,-4.244723053E0,-8.908125458E0,6.976991272E-1,9.892378735E0
1.100594029E1,-4.184697876E0,-8.835077362E0,7.698490906E-1,9.806271255E0
1.101593229E1,-4.123924255E0,-8.803942108E0,8.643026733E-1,9.760285191E0
1.102592329E1,-4.027075653E0,-8.832532654E0,8.716374207E-1,9.746318443E0
1.103591429E1,-3.963457947E0,-8.913663940E0,8.463400269E-1,9.791766704E0
1.104590529E1,-3.974983978E0,-8.997339935E0,8.017327881E-1,9.868910730E0
1.105589629E1,-4.039799194E0,-9.019493866E0,7.688012695E-1,9.912734361E0
1.106588729E1,-4.076622620E0,-8.969797211E0,7.598199463E-1,9.881975528E0
1.107587829E1,-4.140390015E0,-8.868907013E0,8.196954346E-1,9.822028389E0
1.108586929E1,-4.203708344E0,-8.788224792E0,9.042695618E-1,9.783749909E0
1.109586029E1,-4.247417450E0,-8.798253937E0,9.857002258E-1,9.819441545E0
1.110585129E1,-4.274960175E0,-8.831634521E0,9.767189026E-1,9.860376901E0
1.111584329E1,-4.248914337E0,-8.846603394E0,9.542655945E-1,9.860339115E0
1.112583429E1,-4.220623169E0,-8.835526428E0,8.571176147E-1,9.829284705E0
1.113582529E1,-4.211791534E0,-8.826545105E0,7.948471069E-1,9.812179592E0
1.114581629E1,-4.236639862E0,-8.881780243E0,7.777825928E-1,9.871174366E0
1.115580729E1,-4.187541962E0,-8.902137909E0,8.181985474E-1,9.871829410E0
1.116579829E1,-4.098177795E0,-8.906329193E0,8.915460205E-1,9.844420513E0
1.117578929E1,-4.017944641E0,-8.901838531E0,9.485774231E-1,9.812563758E0
1.118578029E1,-3.946992188E0,-8.884474640E0,9.545649719E-1,9.768512233E0
1.119577129E1,-3.836521912E0,-8.858578491E0,8.834628296E-1,9.694009482E0
1.120576329E1,-3.787573700E0,-8.961115265E0,7.884104919E-1,9.760578488E0
1.121575429E1,-3.756288757E0,-9.087003479E0,7.256909180E-1,9.859511386E0
1.122574529E1,-3.695215759E0,-9.109307098E0,7.035369873E-1,9.855407633E0
1.123573629E1,-3.652554474E0,-9.101223907E0,7.348219299E-1,9.834296826E0
1.124572729E1,-3.633993073E0,-9.070837097E0,7.670050049E-1,9.801749230E0
1.125571829E1,-3.628903656E0,-9.044791260E0,7.550299072E-1,9.774827919E0
1.126570929E1,-3.638483734E0,-9.017996979E0,7.021897888E-1,9.749661732E0
1.127570029E1,-3.671864319E0,-8.993747406E0,6.741979980E-1,9.737793534E0
1.128569129E1,-3.681145020E0,-8.972940674E0,6.608757019E-1,9.721175324E0
1.129568229E1,-3.638633423E0,-8.939410400E0,6.697073364E-1,9.674772318E0
1.130567429E1,-3.695814514E0,-9.039552155E0,7.105723572E-1,9.791703690E0
1.131566529E1,-3.840413818E0,-9.154064026E0,7.325765991E-1,9.954010999E0
1.132565629E1,-3.901636505E0,-8.991502075E0,7.099736023E-1,9.827204053E0
1.133564729E1,-3.928580475E0,-8.821755066E0,6.875202942E-1,9.681414729E0
1.134563829E1,-3.997287598E0,-8.858279114E0,6.918612671E-1,9.743002053E0
1.135562929E1,-4.053121490E0,-8.958570557E0,6.768923950E-1,9.856062274E0
1.136562029E1,-4.075425110E0,-8.978179779E0,6.797364807E-1,9.883260780E0
1.137561129E1,-4.064048767E0,-8.953481140E0,7.346722412E-1,9.860074047E0
1.138560229E1,-4.053869934E0,-8.949589233E0,8.187973022E-1,9.858977529E0
1.139559329E1,-4.010011139E0,-8.920699310E0,8.397537231E-1,9.816529521E0
1.140558529E1,-3.999532928E0,-8.890761566E0,8.303233337E-1,9.784239455E0
1.141557629E1,-4.031266937E0,-8.890911255E0,8.186476135E-1,9.796407504E0
1.142556729E1,-4.061054993E0,-8.910819855E0,7.557783508E-1,9.821714670E0
1.143555829E1,-4.120780792E0,-8.910071411E0,7.198530579E-1,9.843190302E0
1.144554929E1,-4.168232117E0,-8.890162811E0,7.057823181E-1,9.844149657E0
1.145554029E1,-4.202959900E0,-8.883576508E0,7.156617737E-1,9.853678260E0
1.146553129E1,-4.195625153E0,-8.886719971E0,7.568261719E-1,9.856462251E0
1.147552229E1,-4.144730988E0,-8.886420593E0,7.988887024E-1,9.837961632E0
1.148551329E1,-4.079616394E0,-8.882977753E0,8.129594421E-1,9.808744401E0
1.149550429E1,-4.021237793E0,-8.904383240E0,8.271798706E-1,9.805234358E0
1.150549629E1,-4.032015381E0,-8.934770050E0,8.390052795E-1,9.838251559E0
1.151548729E1,-4.040996704E0,-8.917855225E0,8.211923218E-1,9.825077760E0
1.152547829E1,-4.069287872E0,-8.913214874E0,7.936495972E-1,9.830278880E0
1.153546929E1,-4.081262970E0,-8.885073395E0,7.458988953E-1,9.805998257E0
1.154546029E1,-4.042194214E0,-8.887767792E0,7.125183105E-1,9.789761628E0
1.155545129E1,-4.001029816E0,-8.936266937E0,7.485932922E-1,9.819648582E0
1.156544229E1,-3.967499542E0,-8.949888611E0,8.286767578E-1,9.824879843E0
1.157543329E1,-3.919748840E0,-8.918004913E0,8.828640747E-1,9.781344058E0
1.158542429E1,-3.886817322E0,-8.919801178E0,9.063652039E-1,9.771985460E0
1.159541529E1,-3.898493042E0,-8.912466431E0,8.381071472E-1,9.763848087E0
1.160540629E1,-3.909570007E0,-8.934320984E0,7.083270264E-1,9.777962787E0
1.161539829E1,-3.949985962E0,-8.972790985E0,6.204597473E-1,9.823356731E0
1.162538896E1,-3.994892578E0,-8.977281647E0,6.081852722E-1,9.844828175E0
1.163537996E1,-4.027674408E0,-8.981772308E0,6.688092041E-1,9.866189776E0
1.164537096E1,-4.018094330E0,-8.930129700E0,7.776329041E-1,9.823289237E0
1.165536196E1,-4.034859467E0,-8.895701294E0,8.726852417E-1,9.806894103E0
1.166535296E1,-4.044439545E0,-8.884474640E0,8.888516235E-1,9.802113959E0
1.167534396E1,-3.990102539E0,-8.866212616E0,8.196954346E-1,9.757179153E0
1.168533496E1,-3.953279114E0,-8.861721954E0,7.786807251E-1,9.734725236E0
1.169532596E1,-3.977528687E0,-8.865015106E0,7.616162109E-1,9.746244740E0
1.170531696E1,-4.014352112E0,-8.918004913E0,7.884104919E-1,9.811596487E0
1.171530896E1,-4.038601685E0,-8.978628845E0,8.521778870E-1,9.881917155E0
1.172529996E1,-4.100722504E0,-8.999136200E0,8.415499878E-1,9.925149056E0
1.173529096E1,-4.104764099E0,-8.909622345E0,7.701484680E-1,9.839897728E0
1.174528196E1,-4.104315033E0,-8.745264130E0,7.734416199E-1,9.691401267E0
1.175527296E1,-4.140240326E0,-8.747359772E0,8.586145020E-1,9.715714683E0
1.176526396E1,-4.112098846E0,-8.922196198E0,8.801696777E-1,9.863551114E0
1.177525496E1,-3.987857208E0,-9.045539703E0,8.800199890E-1,9.924677769E0
1.178524596E1,-3.862268372E0,-9.015152893E0,9.575587463E-1,9.854289290E0
1.179523696E1,-3.798051910E0,-8.871451721E0,1.065634003E0,9.708935564E0
1.180522796E1,-3.891906738E0,-8.826245728E0,1.129401398E0,9.712110956E0
1.181521996E1,-3.962260437E0,-8.951086121E0,1.155896301E0,9.856852782E0
1.182521096E1,-3.998036041E0,-9.064550171E0,1.053209839E0,9.962911871E0
1.183520196E1,-4.011657715E0,-9.063202972E0,9.469308472E-1,9.956491539E0
1.184519296E1,-4.072880402E0,-8.955876160E0,9.559121704E-1,9.884828811E0
1.185518396E1,-4.128714294E0,-8.866961060E0,1.094823303E0,9.842150081E0
1.186517496E1,-4.122577057E0,-8.780440979E0,1.166374512E0,9.769964937E0
1.187516596E1,-4.089346161E0,-8.825946350E0,1.076561279E0,9.786677944E0
1.188515696E1,-4.018543396E0,-8.908724213E0,8.336164856E-1,9.808617363E0
1.189514796E1,-3.976480865E0,-9.043144684E0,6.259982300E-1,9.898623118E0
1.190513896E1,-4.002227325E0,-9.176517334E0,5.457650757E-1,1.002617342E1
1.191513096E1,-4.018992462E0,-9.212742004E0,6.023474121E-1,1.006924714E1
1.192512196E1,-4.024231567E0,-9.118288422E0,7.207511902E-1,9.992852732E0
1.193511296E1,-3.957620087E0,-8.974287872E0,8.875044250E-1,9.848261962E0
1.194510396E1,-3.840114441E0,-8.938063202E0,1.049018555E0,9.784472017E0
1.195509496E1,-3.747606812E0,-8.998836823E0,1.080004120E0,9.807651598E0
1.196508596E1,-3.646716614E0,-9.048383789E0,1.016386414E0,9.808406221E0
1.197507696E1,-3.565136261E0,-9.038055267E0,9.271719360E-1,9.759932755E0
1.198506796E1,-3.550317078E0,-9.104816437E0,8.755293274E-1,9.811675968E0
1.199505896E1,-3.621568909E0,-9.191935272E0,8.637039185E-1,9.917329271E0
1.200504996E1,-3.706442413E0,-9.203311615E0,8.229885864E-1,9.955700390E0
1.201504196E1,-3.779041443E0,-9.111552429E0,7.685018921E-1,9.894045535E0
1.202503296E1,-3.883673859E0,-8.963061218E0,7.372169495E-1,9.796064407E0
1.203502396E1,-4.008065186E0,-8.881929932E0,7.406597900E-1,9.772504427E0
1.204501496E1,-4.088747406E0,-8.885672150E0,7.420069885E-1,9.809362837E0
1.205500596E1,-4.092639313E0,-8.945697327E0,7.688012695E-1,9.867433942E0
1.206499696E1,-4.020040283E0,-8.987161102E0,7.735913086E-1,9.875638312E0
1.207498796E1,-3.941753082E0,-8.996142426E0,7.228468323E-1,9.848375675E0
1.208497896E1,-3.843856659E0,-8.961863708E0,6.969506836E-1,9.776296610E0
1.209496996E1,-3.764521637E0,-8.920549622E0,7.122189331E-1,9.708505782E0
1.210496096E1,-3.776496735E0,-8.926387482E0,7.250921631E-1,9.719469106E0
1.211495196E1,-3.843557281E0,-8.967402191E0,7.411088562E-1,9.784501876E0
1.212494396E1,-3.954476624E0,-8.984766083E0,7.201524353E-1,9.842892180E0
1.213493496E1,-4.005370789E0,-8.963659973E0,6.598278809E-1,9.839998379E0
1.214492596E1,-4.043691101E0,-8.968000946E0,5.977070618E-1,9.855644698E0
1.215491696E1,-4.039948883E0,-8.982071686E0,5.584886169E-1,9.864619014E0
1.216490796E1,-3.971241760E0,-8.963809662E0,5.089416504E-1,9.817314621E0
1.217489896E1,-3.853736115E0,-8.916358337E0,4.689747620E-1,9.724847833E0
1.218488996E1,-3.804338837E0,-8.910969543E0,4.378395081E-1,9.698972916E0
1.219488096E1,-3.793710938E0,-8.969348145E0,3.899391174E-1,9.746460964E0
1.220487196E1,-3.783232727E0,-8.934021606E0,3.400927734E-1,9.707999538E0
1.221486296E1,-3.730392609E0,-8.850495300E0,2.918930054E-1,9.608969643E0
1.222485496E1,-3.721860352E0,-8.827592926E0,2.647993469E-1,9.583775876E0
1.223484596E1,-3.766168213E0,-8.884025574E0,2.652484131E-1,9.652993842E0
1.224483696E1,-3.882925415E0,-9.017847290E0,2.272274780E-1,9.820911966E0
1.225482796E1,-3.989803162E0,-9.151369629E0,1.901046753E-1,9.985100658E0
1.226481896E1,-4.057312775E0,-9.182804260E0,6.691085815E-2,1.003943017E1
1.227480996E1,-4.049978027E0,-9.059460754E0,-1.010398865E-1,9.924029436E0
1.228480096E1,-3.927682343E0,-8.858129425E0,-2.763253784E-1,9.693786732E0
1.229479196E1,-3.811074829E0,-8.657546539E0,-3.673361206E-1,9.466379417E0
1.230478296E1,-3.761078796E0,-8.578061829E0,-4.369413757E-1,9.376554603E0
1.231477396E1,-3.783083038E0,-8.635093231E0,-5.301974487E-1,9.442333489E0
1.232476596E1,-3.821702728E0,-8.761879578E0,-6.577322388E-1,9.581678202E0
1.233475696E1,-3.852538605E0,-8.882678375E0,-8.535250854E-1,9.719698241E0
1.234474796E1,-3.869752808E0,-8.992400208E0,-1.035396881E0,9.844302666E0
1.235473896E1,-3.903432770E0,-9.122030640E0,-1.186133423E0,9.992754519E0
1.236472996E1,-3.963907013E0,-9.332043915E0,-1.294807434E0,1.022135650E1
1.237472096E1,-4.020189972E0,-9.564809875E0,-1.392853546E0,1.046840754E1
1.238471196E1,-4.043242035E0,-9.855205994E0,-1.518143005E0,1.076000230E1
1.239470296E1,-3.930077362E0,-1.006716522E1,-1.605411530E0,1.092568853E1
1.240469396E1,-3.816313934E0,-1.006806335E1,-1.551224213E0,1.087825576E1
1.241468496E1,-3.784879303E0,-9.799521790E0,-1.259480896E0,1.058027555E1
1.242467596E1,-3.860771484E0,-9.466763763E0,-8.695417786E-1,1.026066643E1
1.243466796E1,-4.001329193E0,-9.248367920E0,-4.809498596E-1,1.008832282E1
1.244465896E1,-4.082909546E0,-9.197922821E0,-3.019221497E-1,1.006792390E1
1.245464996E1,-4.005670166E0,-9.334738312E0,-4.490661621E-1,1.016781163E1
1.246464096E1,-3.907923431E0,-9.659263458E0,-8.655001831E-1,1.045573176E1
1.247463196E1,-3.848347321E0,-9.940678253E0,-1.484463043E0,1.076245751E1
1.248462296E1,-3.708538055E0,-1.013736923E1,-2.032922516E0,1.098418333E1
1.249461396E1,-3.659290466E0,-1.017284546E1,-2.308948517E0,1.105479239E1
1.250460496E1,-3.683090973E0,-1.006970993E1,-2.356848907E0,1.097811250E1
1.251459596E1,-3.855233002E0,-9.821825409E0,-2.096540222E0,1.075762784E1
1.252458696E1,-3.931723938E0,-9.470655670E0,-1.777254181E0,1.040722847E1
1.253457896E1,-3.971990204E0,-9.208700409E0,-1.529968414E0,1.014483478E1
1.254456996E1,-3.852089539E0,-8.917705536E0,-1.360371094E0,9.808907959E0
1.255456096E1,-3.591032410E0,-8.493188324E0,-1.253942413E0,9.306026717E0
1.256455196E1,-3.410058746E0,-8.194259949E0,-1.246158600E0,8.962550308E0
1.257454296E1,-3.441343689E0,-8.131839752E0,-1.217867432E0,8.913633671E0
1.258453396E1,-3.585194550E0,-8.182434540E0,-1.235830078E0,9.018488285E0
1.259452496E1,-3.589685211E0,-8.321944427E0,-1.385518799E0,9.168438325E0
1.260451596E1,-3.464096375E0,-8.425529022E0,-1.587299194E0,9.247108831E0
1.261450696E1,-3.300636292E0,-8.427924042E0,-1.792971497E0,9.227071603E0
1.262449821E1,-3.136876831E0,-8.407566376E0,-2.091151428E0,9.214124099E0
1.263449021E1,-3.120411072E0,-8.462053070E0,-2.370769958E0,9.325441417E0
1.264448121E1,-3.125799866E0,-8.522078247E0,-2.497406616E0,9.414535690E0
1.265447221E1,-2.997217255E0,-8.561895447E0,-2.451452179E0,9.396753838E0
1.266446321E1,-2.706671448E0,-8.529113617E0,-2.254312134E0,9.227880180E0
1.267445421E1,-2.238445129E0,-8.472082214E0,-1.989363098E0,8.985787622E0
1.268444521E1,-1.790277100E0,-8.454868011E0,-1.842368774E0,8.836526913E0
1.269443621E1,-1.505120087E0,-8.539292450E0,-1.846260681E0,8.865302055E0
1.270442721E1,-1.368304596E0,-8.678952026E0,-1.971400452E0,9.004603572E0
1.271441821E1,-1.200204163E0,-8.836125183E0,-2.149230652E0,9.172610898E0
1.272440921E1,-1.012793884E0,-8.999585266E0,-2.399809570E0,9.368957914E0
1.273440021E1,-8.743318176E-1,-9.142238617E0,-2.677631836E0,9.566331340E0
1.274439221E1,-8.454418945E-1,-9.200766907E0,-2.814297638E0,9.658631107E0
1.275438321E1,-8.981323242E-1,-8.998088379E0,-2.807262268E0,9.468524573E0
1.276437421E1,-1.085093536E0,-8.489146729E0,-2.718646545E0,8.979648055E0
1.277436521E1,-1.257684631E0,-7.979606323E0,-2.529739380E0,8.464955348E0
1.278435621E1,-1.356778564E0,-7.625742188E0,-2.393073578E0,8.106762186E0
1.279434721E1,-1.573378143E0,-7.616012421E0,-2.487976227E0,8.165120310E0
1.280433821E1,-1.896107025E0,-7.857310638E0,-2.754122772E0,8.539188753E0
1.281432921E1,-2.134112091E0,-8.225544891E0,-3.104244690E0,9.047118783E0
1.282432021E1,-2.179617462E0,-8.593180389E0,-3.448379059E0,9.512349847E0
1.283431121E1,-1.975891113E0,-8.760981445E0,-3.760779419E0,9.736652577E0
1.284430321E1,-1.692530365E0,-8.832981720E0,-3.989803162E0,9.838940714E0
1.285429421E1,-1.460961914E0,-8.870254211E0,-4.107608185E0,9.883737375E0
1.286428521E1,-1.390608215E0,-8.872948608E0,-4.089645538E0,9.868546440E0
1.287427621E1,-1.458716583E0,-8.891510010E0,-3.886218567E0,9.812721288E0
1.288426721E1,-1.616638184E0,-8.919352112E0,-3.500770111E0,9.717188507E0
1.289425821E1,-1.851948853E0,-8.989705811E0,-3.088227997E0,9.684094035E0
1.290424921E1,-2.128423920E0,-9.077872467E0,-2.809657288E0,9.738179038E0
1.291424021E1,-2.393971710E0,-9.107510834E0,-2.727029114E0,9.803802422E0
1.292423121E1,-2.661166077E0,-9.141041107E0,-2.863844604E0,9.941933581E0
1.293422221E1,-2.913241882E0,-9.208251343E0,-3.090623016E0,1.014055332E1
1.294421421E1,-3.174299011E0,-9.391021271E0,-3.301534424E0,1.044832926E1
1.295420521E1,-3.353326721E0,-9.796378326E0,-3.406765594E0,1.090045321E1
1.296419621E1,-3.482807465E0,-1.034289185E1,-3.380869446E0,1.142521938E1
1.297418721E1,-3.603755951E0,-1.087069427E1,-3.426674194E0,1.195412678E1
1.298417821E1,-3.652853851E0,-1.122755219E1,-3.711232452E0,1.237636924E1
1.299416921E1,-3.290158081E0,-1.116183884E1,-4.027075653E0,1.231377784E1
1.300416021E1,-2.678380280E0,-1.066457291E1,-4.416416016E0,1.184953867E1
1.301415121E1,-2.333647156E0,-1.082698517E1,-5.001848602E0,1.215269543E1
1.302414221E1,-2.289938049E0,-1.213466583E1,-5.232518921E0,1.341168093E1
1.303413321E1,-2.272574158E0,-1.306019119E1,-3.640579376E0,1.374725447E1
1.304412421E1,-2.682122498E0,-1.206356369E1,-7.990383911E-1,1.238393364E1
1.305411621E1,-3.315305786E0,-9.469907227E0,1.496737518E0,1.014448710E1
1.306410721E1,-3.693718872E0,-6.986870728E0,2.832409973E0,8.395383727E0
1.307409821E1,-4.265080719E0,-5.394033051E0,3.290756836E0,7.623357964E0
1.308408921E1,-4.787494354E0,-4.601431274E0,2.945424957E0,7.264213663E0
1.309408021E1,-5.163362732E0,-4.576582947E0,2.067500610E0,7.202776197E0
1.310407121E1,-5.684129791E0,-5.716013489E0,9.159452820E-1,8.113020242E0
1.311406221E1,-5.723348236E0,-8.370742950E0,6.825805664E-2,1.014054790E1
1.312405321E1,-5.132676544E0,-1.080992065E1,-4.567002869E-1,1.197527988E1
1.313404421E1,-4.180506592E0,-1.164039368E1,-7.592211914E-1,1.239160269E1
1.314403521E1,-3.079995117E0,-1.148471741E1,-1.021625519E0,1.193435472E1
1.315402721E1,-2.043999481E0,-1.093775482E1,-1.515298920E0,1.122980611E1
1.316401821E1,-1.267863464E0,-9.857451324E0,-1.873504028E0,1.011369575E1
1.317400921E1,-1.386416931E0,-8.853339386E0,-1.666035461E0,9.114792611E0
1.318400021E1,-2.172731781E0,-8.671467590E0,-1.044827271E0,9.000376525E0
1.319399121E1,-3.032094727E0,-9.015452271E0,-2.212399292E-1,9.514248535E0
1.320398221E1,-3.973487091E0,-9.555529175E0,8.285270691E-1,1.038186855E1
1.321397321E1,-4.567601624E0,-9.961035919E0,1.529219971E0,1.106452597E1
1.322396421E1,-4.280648346E0,-9.758058014E0,1.777553558E0,1.080293215E1
1.323395521E1,-3.794160004E0,-9.360335083E0,1.728455658E0,1.024690597E1
1.324394721E1,-3.282523956E0,-8.916508026E0,1.405427399E0,9.604910467E0
1.325393821E1,-3.050955505E0,-8.600664825E0,1.211730194E0,9.205870681E0
1.326392921E1,-2.864443359E0,-8.420888672E0,1.042731628E0,8.955651346E0
1.327392021E1,-2.678829346E0,-8.444689178E0,9.424401855E-1,8.909382441E0
1.328391121E1,-2.500400391E0,-8.632398834E0,1.009949799E0,9.043799552E0
1.329390221E1,-2.455643463E0,-8.870553589E0,1.233884125E0,9.286515806E0
1.330389321E1,-2.469564514E0,-9.040599976E0,1.406924286E0,9.476847195E0
1.331388421E1,-2.529739380E0,-9.116941223E0,1.530866547E0,9.584453609E0
1.332387521E1,-2.753973083E0,-9.122030640E0,1.555565186E0,9.654822307E0
1.333386621E1,-3.067720642E0,-9.156009979E0,1.589095459E0,9.786145976E0
1.334385821E1,-3.320993958E0,-8.953930206E0,1.506766663E0,9.668102853E0
1.335384921E1,-3.526815948E0,-8.662785645E0,1.211730194E0,9.431361297E0
1.336384021E1,-3.696263580E0,-8.281678162E0,1.015039215E0,9.125725299E0
1.337383121E1,-3.725901947E0,-7.935298462E0,8.325686646E-1,8.805934225E0
1.338382221E1,-3.714226227E0,-7.656428375E0,6.412664795E-1,8.533908520E0
1.339381321E1,-3.786226501E0,-7.680378571E0,4.324507141E-1,8.573840430E0
1.340380421E1,-4.083508301E0,-7.984995117E0,2.817141724E-1,8.972990022E0
1.341379521E1,-4.435426483E0,-8.311017151E0,2.171983337E-1,9.423013811E0
1.342378621E1,-4.654421082E0,-8.703650665E0,1.167572021E-1,9.870704268E0
1.343377821E1,-4.836442566E0,-9.090296631E0,1.212478638E-2,1.029683527E1
1.344376921E1,-4.938230896E0,-9.228309631E0,-1.884580994E-1,1.046820613E1
1.345376021E1,-5.068909149E0,-9.322613525E0,-6.259982300E-1,1.062999702E1
1.346375121E1,-4.894821167E0,-9.520202637E0,-1.210233307E0,1.077303101E1
1.347374221E1,-3.929777985E0,-9.785900116E0,-1.669777679E0,1.067685130E1
1.348373321E1,-2.615361328E0,-9.922116852E0,-1.718276825E0,1.040389316E1
1.349372421E1,-1.439107361E0,-9.943821716E0,-1.498533783E0,1.015855422E1
1.350371521E1,-5.736071777E-1,-9.987530823E0,-1.180594940E0,1.007341062E1
1.351370621E1,-4.535568237E-2,-1.016805542E1,-9.955796814E-1,1.021677968E1
1.352369721E1,1.718426514E-1,-1.049796936E1,-8.910969543E-1,1.053712221E1
1.353368921E1,2.418969727E-1,-1.089165070E1,-8.867559814E-1,1.093036620E1
1.354368021E1,3.291654968E-1,-1.117201767E1,-8.402027893E-1,1.120840174E1
1.355367121E1,3.098556519E-1,-1.148337021E1,-7.696994019E-1,1.151330704E1
1.356366221E1,-1.901046753E-2,-1.197749268E1,-6.487509155E-1,1.199506440E1
1.357365321E1,-4.575984192E-1,-1.247999771E1,-5.237608337E-1,1.249936257E1
1.358364421E1,-7.351213074E-1,-1.289164169E1,-4.602928162E-1,1.292078552E1
1.359363521E1,-8.554710388E-1,-1.344324463E1,-3.788621521E-1,1.347576318E1
1.360362621E1,-1.038690033E0,-1.432670746E1,-1.071771240E-1,1.436471060E1
1.361361721E1,-1.236129456E0,-1.479987350E1,2.622546387E-1,1.485372173E1
1.362360933E1,-1.860481110E0,-1.309686493E1,4.520599365E-2,1.322842789E1
1.363360033E1,-3.480562134E0,-1.118129837E1,-1.130000153E0,1.176489041E1
1.364359133E1,-5.577102356E0,-1.086829926E1,-2.389630737E0,1.244726213E1
1.365358233E1,-7.493417358E0,-1.103819595E1,-2.718047791E0,1.361546391E1
1.366357333E1,-8.455317078E0,-1.131616791E1,-1.678010559E0,1.422546177E1
1.367356433E1,-9.186546478E0,-1.165955383E1,9.744735718E-2,1.484410077E1
1.368355533E1,-1.001761826E1,-1.209439957E1,1.582808533E0,1.578393041E1
1.369354633E1,-1.062969543E1,-1.244586868E1,2.560425568E0,1.656640732E1
1.370353733E1,-1.102427490E1,-1.238015533E1,3.226839752E0,1.688832076E1
1.371352933E1,-1.050754944E1,-1.164189056E1,3.131787415E0,1.599219508E1
1.372352033E1,-8.331674194E0,-1.052281769E1,1.787283325E-1,1.342305594E1
1.373351133E1,-6.165379028E0,-1.017000137E1,-3.552562408E0,1.241215236E1
1.374350233E1,-5.346581726E0,-1.009246262E1,-3.936513977E0,1.208055794E1
1.375349333E1,-5.374723206E0,-1.012898666E1,-2.362986145E0,1.170759257E1
1.376348433E1,-4.865482178E0,-1.008722351E1,-7.080276489E-1,1.122168874E1
1.377347533E1,-3.741020508E0,-9.907597046E0,4.661306763E-1,1.060061279E1
1.378346633E1,-2.535128174E0,-9.638307037E0,1.603914642E0,1.009437366E1
1.379345733E1,-1.583706665E0,-9.338330841E0,2.268831940E0,9.739617450E0
1.380344933E1,-1.432221680E0,-9.113199005E0,2.258952484E0,9.497606086E0
1.381344033E1,-1.666484528E0,-8.890312500E0,1.760189667E0,9.214830150E0
1.382343133E1,-1.784588928E0,-8.098159790E0,7.973918152E-1,8.330713255E0
1.383342233E1,-2.513872375E0,-7.290140076E0,4.834945679E-2,7.711552004E0
1.384341333E1,-3.424877930E0,-7.032226410E0,-6.126759338E-1,7.845850426E0
1.385340433E1,-3.535497894E0,-6.626120911E0,-1.102158051E0,7.590782308E0
1.386339533E1,-3.653003540E0,-6.421047363E0,-1.009500732E0,7.456096555E0
1.387338633E1,-3.817062378E0,-6.322701874E0,-4.411326599E-1,7.398724363E0
1.388337733E1,-4.000880127E0,-6.107000427E0,6.721023560E-2,7.301165196E0
1.389336833E1,-4.261937256E0,-5.586083679E0,6.129753113E-1,7.052955322E0
1.390336033E1,-4.692292328E0,-4.887636108E0,1.194815369E0,6.879983851E0
1.391335133E1,-5.383704529E0,-4.118236084E0,1.497785339E0,6.941721964E0
1.392334233E1,-5.617069244E0,-3.302432556E0,1.541344757E0,6.695765180E0
1.393333333E1,-5.521268463E0,-2.398761749E0,1.483265533E0,6.199882258E0
1.394332433E1,-5.455854492E0,-1.520987091E0,1.160686340E0,5.781603822E0
1.395331533E1,-5.546865234E0,-9.081614685E-1,9.657916260E-1,5.703089044E0
1.396330633E1,-5.241649933E0,-6.987469482E-1,1.146316223E0,5.410839325E0
1.397329733E1,-4.294569397E0,-8.322692871E-1,8.515791321E-1,4.456588997E0
1.398328833E1,-3.161276093E0,-1.689536591E0,-7.214996338E-2,3.585164716E0
1.399328033E1,-1.576820984E0,-3.620521088E0,-1.520238647E0,4.231508349E0
1.400327133E1,6.355783081E-1,-6.481970673E0,-4.526287537E0,7.931404822E0
1.401326233E1,3.028651886E0,-1.051548294E1,-1.025158173E1,1.499476714E1
1.402325333E1,5.264701996E0,-1.565294952E1,-1.103774689E1,1.986362938E1
1.403324433E1,6.526428223E0,-1.986010071E1,-6.218069458E0,2.181014106E1
1.404323533E1,7.097490692E0,-2.232427643E1,-4.004622345E0,2.376519918E1
1.405322633E1,6.974596252E0,-2.257635223E1,-3.817511444E0,2.393553982E1
1.406321733E1,4.878804474E0,-2.019899597E1,-3.929927673E0,2.114820330E1
1.407320833E1,1.494941254E0,-1.490690094E1,-4.283342743E0,1.558196297E1
1.408320033E1,-6.962022400E-1,-9.958042145E0,-3.834276581E0,1.069340815E1
1.409319133E1,-1.971250763E0,-7.756570129E0,-2.136656799E0,8.283448076E0
1.410318233E1,-2.998714142E0,-6.980434113E0,-2.285746765E-1,7.600723208E0
1.411317333E1,-4.374652863E0,-7.181466064E0,1.524130554E0,8.545994176E0
1.412316433E1,-6.193819885E0,-7.933951263E0,2.590962067E0,1.039346294E1
1.413315533E1,-7.938441925E0,-8.778644714E0,2.126328278E0,1.202517090E1
1.414314633E1,-9.961934052E0,-1.080513062E1,6.706054688E-2,1.469678450E1
1.415313733E1,-1.241563156E1,-1.616683090E1,-6.979086914E0,2.154581126E1
1.416312833E1,-1.074031540E1,-2.463547028E1,-1.967673203E1,3.330817548E1
1.417311933E1,-5.277874603E0,-2.361653915E1,-6.636150055E0,2.509253613E1
1.418311133E1,-3.342848511E0,-1.471589813E1,3.243006134E0,1.543532905E1
1.419310233E1,-4.109105072E0,-8.321645050E0,4.543950806E0,1.033353810E1
1.420309333E1,-3.601660309E0,-4.453688507E0,4.470004578E0,7.265551543E0
1.421308433E1,-2.667752380E0,-1.791923676E0,3.579356689E0,4.810372910E0
1.422307533E1,-2.216889954E0,-2.082170105E-1,2.318678284E0,3.214688845E0
1.423306633E1,-1.884580994E0,-1.682501221E-1,1.789378967E0,2.604194830E0
1.424305733E1,-1.785636749E0,-2.414928131E0,1.310524750E0,3.276866125E0
1.425304833E1,-2.403402100E0,-5.406756592E0,9.816586304E-1,5.997750592E0
1.426303933E1,-3.471281433E0,-8.289461975E0,1.302142181E0,9.080779090E0
1.427303033E1,-4.275259552E0,-1.103475311E1,1.864822083E0,1.198003263E1
1.428302233E1,-4.543950806E0,-1.320538925E1,2.797682190E0,1.424278132E1
1.429301333E1,-3.978426819E0,-1.420785461E1,3.478316803E0,1.515881593E1
1.430300433E1,-2.618205414E0,-1.267219803E1,2.639012146E0,1.320621019E1
1.431299533E1,-1.960772552E0,-1.057954971E1,1.555864563E0,1.087162433E1
1.432298633E1,-2.525099030E0,-1.003288651E1,9.797126770E-1,1.039205339E1
1.433297733E1,-3.325933685E0,-9.557774506E0,6.020480347E-1,1.013781782E1
1.434296833E1,-3.633693695E0,-8.785081329E0,4.237687683E-1,9.516352442E0
1.435295933E1,-3.671265564E0,-7.946525116E0,2.996768188E-1,8.758724705E0
1.436295033E1,-3.717369690E0,-7.279961243E0,1.555265808E-1,8.175626069E0
1.437294233E1,-3.822900238E0,-7.011569366E0,4.969665527E-2,7.986184381E0
1.438293333E1,-4.218078461E0,-7.039561157E0,-1.353186035E-1,8.207674355E0
1.439292433E1,-4.584516449E0,-7.220834198E0,-2.948867798E-1,8.558340715E0
1.440291533E1,-4.619842987E0,-7.403903503E0,-1.881587219E-1,8.729040040E0
1.441290633E1,-4.380490723E0,-7.596103821E0,1.434017944E-1,8.769837872E0
1.442289733E1,-3.939507751E0,-7.808961182E0,5.270539856E-1,8.762270366E0
1.443288833E1,-3.029999084E0,-7.873776398E0,7.307803345E-1,8.468251833E0
1.444287933E1,-2.170187073E0,-7.667954407E0,7.391629028E-1,8.003349206E0
1.445287033E1,-1.741777954E0,-7.176376648E0,7.643106079E-1,7.424172879E0
1.446286133E1,-1.510808258E0,-6.594087524E0,8.192463684E-1,6.814374255E0
1.447285333E1,-1.315314789E0,-5.946085052E0,7.276368713E-1,6.133142413E0
1.448284433E1,-1.028211823E0,-5.559289398E0,4.128414917E-1,5.668629134E0
1.449283533E1,-6.646179199E-1,-5.635630646E0,-2.092648315E-1,5.678542201E0
1.450282633E1,-3.359014893E-1,-6.381828918E0,-1.040785675E0,6.474859456E0
1.451281733E1,-4.936734009E-1,-7.610174561E0,-1.897454224E0,7.858676912E0
1.452280833E1,-1.495689697E0,-8.594677277E0,-2.548899536E0,9.088589220E0
1.453279933E1,-2.861000519E0,-8.842112732E0,-2.864742737E0,9.724969536E0
1.454279033E1,-3.694617004E0,-8.646020508E0,-2.287842407E0,9.676677545E0
1.455278133E1,-3.429368591E0,-8.748108215E0,-9.788145447E-1,9.447118301E0
1.456277333E1,-2.440524902E0,-9.133257294E0,-1.871109009E-2,9.453724171E0
1.457276433E1,-1.646875305E0,-9.394913177E0,2.936892700E-1,9.542685433E0
1.458275533E1,-1.230740662E0,-9.690548401E0,2.318678284E-1,9.771141877E0
1.459274633E1,-7.768844604E-1,-9.867779846E0,-4.595443726E-2,9.898421105E0
1.460273733E1,-3.579057312E-1,-1.012180161E1,-3.637435913E-1,1.013465706E1
1.461272833E1,-1.639091492E-1,-1.067445236E1,-5.281018066E-1,1.068876471E1
1.462271933E1,-2.142045593E-1,-1.171134613E1,-6.265969849E-1,1.173005267E1
1.463271054E1,-1.392105103E-1,-1.328667023E1,-9.006770325E-1,1.331789039E1
1.464270154E1,3.095562744E-1,-1.494058090E1,-1.388362885E0,1.500814227E1
1.465269254E1,7.336244202E-1,-1.642070297E1,-1.951791229E0,1.655255811E1
1.466268454E1,1.107846222E0,-1.795935333E1,-3.031346283E0,1.824704786E1
1.467267554E1,8.562194824E-1,-1.903651337E1,-3.909570007E0,1.945267824E1
1.468266654E1,-3.921844482E-1,-1.881332748E1,-3.689826965E0,1.917576394E1
1.469265754E1,-2.424657898E0,-1.627550491E1,-3.178340607E0,1.675926237E1
1.470264854E1,-4.216880951E0,-1.382435211E1,-2.143243103E0,1.461123839E1
1.471263954E1,-5.732628937E0,-1.312500641E1,-1.108444977E0,1.436514803E1
1.472263054E1,-6.708300018E0,-1.345282471E1,-1.989363098E-1,1.503394018E1
1.473262154E1,-7.868986359E0,-1.437146439E1,8.617579651E-1,1.640739351E1
1.474261254E1,-9.768536224E0,-1.538141418E1,2.353855133E0,1.837261104E1
1.475260354E1,-1.171284302E1,-1.609423187E1,4.058510284E0,2.031468673E1
1.476259554E1,-1.291978317E1,-1.592104202E1,5.191504211E0,2.115069957E1
1.477258654E1,-1.270078857E1,-1.443238770E1,5.588478699E0,2.002086260E1
1.478257754E1,-1.064795746E1,-1.180984131E1,4.941074982E0,1.665129340E1
1.479256854E1,-7.623047791E0,-9.144483948E0,3.330124969E0,1.236212670E1
1.480255954E1,-4.937482452E0,-7.511380005E0,1.304836578E0,9.083070023E0
1.481255054E1,-2.881956940E0,-6.940616913E0,-9.246272278E-1,7.571840889E0
1.482254154E1,-1.870360565E0,-6.769373016E0,-2.572400665E0,7.479298420E0
1.483253254E1,-1.699865112E0,-6.959477692E0,-2.334694977E0,7.534896932E0
1.484252354E1,-2.207010498E0,-7.452402649E0,-1.009500732E0,7.837620322E0
1.485251454E1,-2.862796783E0,-7.770042114E0,-2.070195007E-1,8.283237106E0
1.486250654E1,-3.580254822E0,-7.829767914E0,1.432521057E-1,8.610691688E0
1.487249754E1,-3.832779694E0,-7.427554321E0,5.909710693E-1,8.379022030E0
1.488248854E1,-3.703149261E0,-6.725214844E0,8.720864868E-1,7.726730485E0
1.489247954E1,-3.476071472E0,-5.893095245E0,7.795788574E-1,6.886173658E0
1.490247054E1,-3.294199677E0,-5.029391327E0,8.978329468E-1,6.078867709E0
1.491246154E1,-3.418740692E0,-4.465663605E0,9.068142700E-1,5.696687763E0
1.492245254E1,-3.636238403E0,-4.182452545E0,1.093176727E0,5.648909131E0
1.493244354E1,-3.944148102E0,-3.936663666E0,1.485510864E0,5.767180212E0
1.494243454E1,-4.546495514E0,-3.640878754E0,1.880988464E0,6.120844481E0
1.495242554E1,-5.355413361E0,-3.129093018E0,2.000589752E0,6.517210656E0
1.496241754E1,-6.172115021E0,-2.486030273E0,1.417103119E0,6.803200100E0
1.497240854E1,-6.600524139E0,-1.767674103E0,7.692503357E-1,6.876288005E0
1.498239954E1,-6.592740326E0,-1.215472412E0,4.382885742E-1,6.718161584E0
1.499239054E1,-6.415359192E0,-1.196761322E0,1.179547119E-1,6.527096180E0
1.500238154E1,-6.078260193E0,-1.799408112E0,-3.366499329E-1,6.347948464E0
1.501237254E1,-5.796096954E0,-3.297343140E0,-9.545649719E-1,6.736349603E0
1.502236354E1,-5.552254028E0,-5.471721497E0,-1.714384918E0,7.981627439E0
1.503235454E1,-4.359983368E0,-7.571554871E0,-3.588188324E0,9.445263023E0
1.504234554E1,-1.323248291E0,-9.522447968E0,-8.005352783E0,1.251054253E1
1.505233654E1,2.669848022E0,-1.226908630E1,-1.342842545E1,1.838426439E1
1.506232854E1,5.210664368E0,-1.563633408E1,-1.182346298E1,2.028398983E1
1.507231954E1,5.998925171E0,-1.849119736E1,-6.654412079E0,2.054732788E1
1.508231054E1,5.935457153E0,-1.986683670E1,-3.818708954E0,2.108324904E1
1.509230154E1,3.830983429E0,-1.880569336E1,-8.316705322E-1,1.920995088E1
1.510229254E1,3.056643677E-1,-1.553005508E1,9.882449341E-1,1.556446818E1
1.511228354E1,-1.025966492E0,-1.140134079E1,8.910969543E-1,1.148203958E1
1.512227454E1,1.001716919E0,-8.826844482E0,4.580474854E-2,8.883620792E0
1.513226554E1,2.945125580E0,-8.383915558E0,8.108638000E-1,8.923077096E0
1.514225654E1,1.369202728E0,-9.860445099E0,1.814227295E0,1.011901746E1
1.515224754E1,-2.507435760E0,-1.258477982E1,1.020128632E0,1.287262908E1
1.516223954E1,-6.695277100E0,-1.663864975E1,-3.800746307E0,1.833349594E1
1.517223054E1,-1.092473190E1,-2.329979782E1,-2.230930756E1,3.405782655E1
1.518222154E1,-8.671018524E0,-2.222353592E1,-1.318143906E1,2.725476924E1
1.519221254E1,-6.717580719E0,-1.400562515E1,9.777667236E-1,1.556404364E1
1.520220354E1,-6.627917175E0,-8.584348755E0,3.122207336E0,1.128576574E1
1.521219454E1,-5.320535889E0,-5.065316620E0,3.961511993E0,8.346203441E0
1.522218554E1,-3.632047119E0,-2.444416809E0,3.213218079E0,5.430627057E0
1.523217654E1,-2.686164093E0,-1.547032928E0,2.745590515E0,4.140900348E0
1.524216754E1,-2.865640869E0,-2.529589691E0,2.516267395E0,4.576278313E0
1.525215854E1,-4.244723053E0,-5.169949036E0,2.371518402E0,7.097192851E0
1.526215054E1,-6.059249725E0,-8.046367493E0,2.669548645E0,1.042041396E1
1.527214154E1,-7.489675140E0,-1.078118042E1,3.216960297E0,1.351583954E1
1.528213254E1,-7.699389038E0,-1.275108398E1,3.695215759E0,1.534683530E1
1.529212354E1,-6.185736694E0,-1.288206161E1,3.993246002E0,1.483768390E1
1.530211454E1,-4.225562897E0,-1.159833115E1,4.057163086E0,1.299373847E1
1.531210554E1,-3.149600372E0,-1.025218048E1,3.792064362E0,1.137571709E1
1.532209654E1,-2.490221558E0,-9.354497223E0,3.134930878E0,1.017524512E1
1.533208754E1,-1.829046478E0,-8.914262695E0,2.053729248E0,9.328842063E0
1.534207854E1,-1.369053040E0,-9.036857758E0,7.012916565E-1,9.166837750E0
1.535206954E1,-1.210832062E0,-8.924441528E0,-3.230282593E-1,9.011998565E0
1.536206054E1,-1.463207245E0,-8.801547089E0,-8.827143860E-1,8.965901588E0
1.537205254E1,-1.902094574E0,-8.671617279E0,-1.446292419E0,8.994813604E0
1.538204354E1,-2.405348053E0,-8.341104584E0,-2.028132477E0,8.914765632E0
1.539203454E1,-3.362607422E0,-8.151448975E0,-2.392774200E0,9.136663364E0
1.540202554E1,-4.278103638E0,-8.164172516E0,-2.071991272E0,9.447170552E0
1.541201654E1,-4.516557770E0,-8.227341156E0,-1.231788483E0,9.466030818E0
1.542200754E1,-4.361779633E0,-8.037086792E0,-3.594026184E-1,9.151451027E0
1.543199854E1,-4.104764099E0,-7.778274994E0,1.886077881E-1,8.796943963E0
1.544198954E1,-3.914809113E0,-7.543712769E0,4.942721558E-1,8.513379921E0
1.545198054E1,-3.627406769E0,-7.250173187E0,6.728507996E-1,8.134852138E0
1.546197154E1,-3.211721191E0,-7.033723297E0,7.717950439E-1,7.770719659E0
1.547196354E1,-2.691702576E0,-6.858737183E0,8.675958252E-1,7.418912387E0
1.548195454E1,-2.257156219E0,-6.530170441E0,9.466314697E-1,6.973807520E0
1.549194554E1,-1.977837067E0,-6.112688599E0,9.954299927E-1,6.501360030E0
1.550193654E1,-1.748663635E0,-5.920787659E0,1.027014313E0,6.258459028E0
1.551192754E1,-1.472637634E0,-6.103557587E0,8.890013123E-1,6.341324794E0
1.552191854E1,-1.261576538E0,-6.830446014E0,4.933740234E-1,6.963475141E0
1.553190954E1,-1.524280243E0,-7.928263092E0,-1.465452576E-1,8.074791727E0
1.554190054E1,-2.078727264E0,-9.071735229E0,-6.060896301E-1,9.326565914E0
1.555189154E1,-2.480042725E0,-1.014350647E1,-8.144563293E-1,1.047399993E1
1.556188254E1,-2.580932922E0,-1.090467361E1,-1.009351044E0,1.125130708E1
1.557187354E1,-2.141147461E0,-1.095362183E1,-1.076561279E0,1.121273061E1
1.558186554E1,-1.304686890E0,-1.037537430E1,-1.022523651E0,1.050695742E1
1.559185654E1,-3.902384949E-1,-9.991572418E0,-9.126521301E-1,1.004075392E1
1.560184754E1,2.567161560E-1,-1.011790970E1,-8.399034119E-1,1.015595577E1
1.561183854E1,7.324269104E-1,-1.056697586E1,-9.232800293E-1,1.063249143E1
1.562182954E1,1.074315948E0,-1.115300720E1,-1.150657196E0,1.126355789E1
1.563181996E1,1.181942139E0,-1.168335434E1,-1.422192535E0,1.182879484E1
1.564181096E1,7.265890503E-1,-1.219109848E1,-1.687440948E0,1.232875788E1
1.565180196E1,-3.065625000E-1,-1.248763184E1,-2.053729248E0,1.265909686E1
1.566179296E1,-1.172212372E0,-1.256382339E1,-2.704725494E0,1.290500989E1
1.567178396E1,-1.640588379E0,-1.278641052E1,-3.460054779E0,1.334750176E1
1.568177596E1,-1.904788971E0,-1.337064560E1,-3.678001556E0,1.399750264E1
1.569176696E1,-2.043550415E0,-1.377241013E1,-3.638932800E0,1.439087249E1
1.570175796E1,-2.240690460E0,-1.400128418E1,-3.218307495E0,1.454008788E1
1.571174896E1,-2.319277039E0,-1.387120468E1,-2.472558289E0,1.427945762E1
1.572173996E1,-2.797981567E0,-1.383587814E1,-1.655407562E0,1.421269148E1
1.573173096E1,-3.933969269E0,-1.432760559E1,-3.236270142E-1,1.486139733E1
1.574172196E1,-5.878276062E0,-1.526196259E1,1.267115021E0,1.640387795E1
1.575171296E1,-8.131839752E0,-1.662218399E1,2.685116272E0,1.869849373E1
1.576170396E1,-1.064032333E1,-1.786145691E1,4.434228973E0,2.125818690E1
1.577169496E1,-1.316632050E1,-1.864702332E1,6.427483978E0,2.371446867E1
1.578168696E1,-1.488893829E1,-1.812655563E1,7.771089935E0,2.471117847E1
1.579167796E1,-1.441726913E1,-1.551403839E1,7.090904388E0,2.233436727E1
1.580166896E1,-1.127814697E1,-1.158351196E1,4.933440857E0,1.690305260E1
1.581165996E1,-7.538024597E0,-8.077203369E0,1.854493561E0,1.120277535E1
1.582165096E1,-4.334386597E0,-6.741830292E0,-2.917732544E0,8.529498581E0
1.583164196E1,-2.498005371E0,-7.144792328E0,-7.026388550E0,1.032754687E1
1.584163296E1,-2.626587982E0,-8.042475586E0,-7.175478516E0,1.109359590E1
1.585162396E1,-3.948638763E0,-8.612340546E0,-5.243296509E0,1.082849556E1
1.586161496E1,-4.529880066E0,-8.797804871E0,-2.955454102E0,1.032743399E1
1.587160596E1,-4.243824921E0,-8.660839691E0,-5.119354248E-2,9.644833585E0
1.588159696E1,-3.605103149E0,-8.086035004E0,1.470841370E0,8.974636769E0
1.589158896E1,-3.186124420E0,-7.637866974E0,2.174677734E0,8.556729748E0
1.590157996E1,-2.785108337E0,-6.927743683E0,2.640059967E0,7.919619790E0
1.591157096E1,-2.544857941E0,-6.321654053E0,2.541864166E0,7.273285732E0
1.592156196E1,-2.290536804E0,-5.700894928E0,2.135459290E0,6.504379156E0
1.593155296E1,-2.251617737E0,-4.974605255E0,1.866768036E0,5.770728098E0
1.594154396E1,-2.904559937E0,-4.198768616E0,1.426683197E0,5.301089629E0
1.595153496E1,-3.877985687E0,-3.473377075E0,1.189127197E0,5.340144641E0
1.596152596E1,-4.558171234E0,-2.750679932E0,1.341510315E0,5.490247263E0
1.597151696E1,-5.159620514E0,-2.180814972E0,1.457369385E0,5.788053499E0
1.598150796E1,-5.765560455E0,-1.670675812E0,1.739532623E0,6.249705495E0
1.599149996E1,-6.240971832E0,-1.289568329E0,1.684746552E0,6.591743838E0
1.600149096E1,-6.340814209E0,-9.532177734E-1,1.379231873E0,6.558721637E0
1.601148196E1,-6.036047974E0,-6.562353516E-1,1.097966766E0,6.170093273E0
1.602147296E1,-5.329367523E0,-4.740641785E-1,1.178199921E0,5.478599282E0
1.603146396E1,-4.373754730E0,-7.277865601E-1,1.020428009E0,4.549799670E0
1.604145496E1,-3.616030426E0,-1.765877838E0,8.285270691E-1,4.108583416E0
1.605144596E1,-2.789149933E0,-3.839815063E0,3.864962769E-1,4.761608598E0
1.606143696E1,-1.189875641E0,-6.789431305E0,-2.652933197E0,7.385813160E0
1.607142796E1,2.102378082E0,-1.100257004E1,-1.320179672E1,1.731369336E1
1.608141896E1,6.919660492E0,-1.770024216E1,-2.205423798E1,2.911305011E1
1.609140996E1,8.230783997E0,-2.201082825E1,-1.095871124E1,2.592905161E1
1.610140096E1,8.181386719E0,-2.363390305E1,-3.493734741E0,2.525277498E1
1.611139296E1,5.434598694E0,-2.206486588E1,-3.106040955E-1,2.272640851E1
1.612138396E1,8.818162537E-1,-1.779125290E1,7.444020081E-1,1.782864027E1
1.613137496E1,-1.862427063E0,-1.253672974E1,3.966751099E-2,1.267437575E1
1.614136596E1,-1.322200470E0,-8.452772369E0,-2.606080627E-1,8.559526352E0
1.615135696E1,9.116043091E-1,-6.420448608E0,9.369017029E-1,6.552172735E0
1.616134796E1,1.626817017E0,-6.272256775E0,1.698966980E0,6.698822841E0
1.617133896E1,-2.182461548E0,-8.312214661E0,1.401834869E0,8.707536504E0
1.618132996E1,-7.007976837E0,-1.164653091E1,-1.005908203E-1,1.359277529E1
1.619132096E1,-1.272279282E1,-1.851963821E1,-1.182166672E1,2.538893973E1
1.620131196E1,-1.195863190E1,-2.474055176E1,-1.512589554E1,3.136712441E1
1.621130396E1,-8.736432495E0,-2.248384460E1,-4.133204956E0,2.447308530E1
1.622129496E1,-9.347761230E0,-1.476769043E1,1.750908966E0,1.756505061E1
1.623128596E1,-7.691904602E0,-8.162975006E0,1.902543640E0,1.137625728E1
1.624127696E1,-5.862409058E0,-3.345991974E0,1.652413788E0,6.949386561E0
1.625126796E1,-3.766916656E0,-1.168919220E0,3.030897217E0,4.974170401E0
1.626125896E1,-2.017205200E0,-3.826043701E-1,3.329376526E0,3.911553524E0
1.627124996E1,-2.303410034E0,-1.175505524E0,3.056493988E0,4.003706598E0
1.628124096E1,-4.559368744E0,-4.381089478E0,3.097957764E0,7.041244965E0
1.629123196E1,-7.127129059E0,-8.276888123E0,3.250191193E0,1.139590226E1
1.630122296E1,-9.065448303E0,-1.205353455E1,3.257376251E0,1.542985898E1
1.631121396E1,-1.003797592E1,-1.523142609E1,3.231180725E0,1.852559932E1
1.632120596E1,-8.352331238E0,-1.543320648E1,3.134781189E0,1.782616483E1
1.633119696E1,-5.691464539E0,-1.269001099E1,2.770438843E0,1.418113108E1
1.634118796E1,-5.032085724E0,-1.103460342E1,2.009571075E0,1.229319874E1
1.635117896E1,-4.884342957E0,-1.013647110E1,1.083446960E0,1.130392453E1
1.636116996E1,-4.333787842E0,-9.616751862E0,3.323089600E-1,1.055339105E1
1.637116096E1,-3.665128326E0,-9.374106445E0,-1.986369324E-1,1.006709958E1
1.638115196E1,-3.109034729E0,-9.199270020E0,-3.905378723E-1,9.718291294E0
1.639114296E1,-2.630030823E0,-8.767418060E0,-4.203259277E-1,9.163042915E0
1.640113396E1,-2.336940308E0,-8.384214935E0,-4.757107544E-1,8.716802786E0
1.641112496E1,-2.324965210E0,-7.931855621E0,-4.688250732E-1,8.278864280E0
1.642111596E1,-2.521356812E0,-7.755671997E0,-4.709207153E-1,8.168809865E0
1.643110796E1,-2.621348877E0,-7.557933197E0,-4.529580688E-1,8.012427545E0
1.644109896E1,-2.931653595E0,-7.349566498E0,-4.192781067E-1,7.923794207E0
1.645108996E1,-3.198698273E0,-7.190297699E0,-4.267625427E-1,7.881254843E0
1.646108096E1,-3.325634308E0,-7.025939484E0,-2.165995789E-1,7.776283467E0
1.647107196E1,-3.518134003E0,-7.093748474E0,-1.766326904E-1,7.920210438E0
