"Time (s)","Acceleration x (m/s^2)","Acceleration y (m/s^2)","Acceleration z (m/s^2)","Absolute acceleration (m/s^2)"
3.279583325E-4,5.332810364E0,7.108417969E0,6.264472961E-1,8.908473978E0
1.025895833E-2,5.743556213E0,7.239096222E0,1.238823853E0,9.323499162E0
2.018895833E-2,5.915249176E0,7.469167786E0,1.687141571E0,9.676005731E0
3.011895833E-2,5.690566406E0,7.423063660E0,1.707349548E0,9.507863198E0
4.004895833E-2,5.835165710E0,7.241042175E0,1.614243164E0,9.438624457E0
4.997895833E-2,5.774092712E0,7.297923889E0,1.796114960E0,9.477651011E0
5.990995833E-2,5.577850800E0,7.680977325E0,2.120490417E0,9.726577601E0
6.983995833E-2,5.551954651E0,7.955207062E0,2.320175171E0,9.974604386E0
7.976995833E-2,5.560486908E0,8.020171967E0,2.641407166E0,1.011035137E1
8.969995833E-2,5.732778625E0,8.077353058E0,2.438578949E0,1.020073774E1
9.962995833E-2,5.820795593E0,7.825277252E0,2.045945435E0,9.965064884E0
1.095599583E-1,5.745651855E0,7.532785492E0,1.876048737E0,9.657894769E0
1.194909583E-1,5.758225708E0,7.521708527E0,1.578168182E0,9.603326365E0
1.294209583E-1,5.611081696E0,7.572902069E0,1.357676697E0,9.522414061E0
1.393509583E-1,5.426365814E0,7.571554871E0,1.324146423E0,9.408892223E0
1.492809583E-1,5.299280090E0,7.536378021E0,1.301842804E0,9.304523515E0
1.592109583E-1,5.179080048E0,7.218738556E0,1.023421783E0,8.943178888E0
1.691409583E-1,5.119803314E0,7.115153961E0,1.102457428E0,8.834773016E0
1.790719583E-1,5.251679077E0,7.175628204E0,1.473236389E0,9.013334495E0
1.890019583E-1,5.628295898E0,7.540718994E0,1.530866547E0,9.533294816E0
1.989319583E-1,5.830824738E0,8.340954895E0,1.451381836E0,1.027991026E1
2.088619583E-1,5.453160095E0,7.829618225E0,1.666634216E0,9.685945807E0
2.187919583E-1,5.027145996E0,7.562723236E0,1.331181793E0,9.178181987E0
2.287229583E-1,4.440964966E0,7.288194122E0,1.316212921E0,8.635528927E0
2.386529583E-1,4.944667511E0,7.663014679E0,6.752458191E-1,9.144806596E0
2.485829583E-1,4.964576111E0,7.634424133E0,2.986289978E-1,9.111565567E0
2.585129583E-1,4.729864197E0,7.955805817E0,3.297642517E-1,9.261490483E0
2.684429583E-1,5.111271057E0,8.799152069E0,-4.602928162E-1,1.018636532E1
2.783729583E-1,5.329367523E0,9.252708893E0,-8.967851257E-1,1.071536297E1
2.883039583E-1,7.065756683E0,9.607022095E0,-6.996450806E-1,1.194609954E1
2.982339583E-1,1.052925430E1,7.194938049E0,1.517095184E0,1.284265967E1
3.081639583E-1,1.057685532E1,7.087162170E0,2.882855072E0,1.305406409E1
3.180939583E-1,9.689949646E0,8.568182373E0,3.208577728E0,1.332680923E1
3.280239583E-1,9.038055267E0,9.329050140E0,3.161425781E0,1.336832946E1
3.379549583E-1,8.597970428E0,8.803942108E0,2.455942841E0,1.254855160E1
3.478849583E-1,6.702761536E0,8.494385834E0,1.033899994E0,1.086970800E1
3.578149583E-1,4.636458435E0,8.755442963E0,-1.702260132E0,1.005247322E1
3.677449583E-1,-1.573228455E-1,9.316027222E0,-2.719844055E0,9.706217871E0
3.776749583E-1,-4.929698639E0,7.183412018E0,-7.679031372E-1,8.746028362E0
3.876049583E-1,-5.824986877E0,6.769522705E0,1.288969574E0,9.023211864E0
3.975359583E-1,-3.983815613E0,7.893984375E0,1.258133698E0,8.931331175E0
4.074659583E-1,-2.552492065E0,8.270750885E0,4.701722717E-1,8.668425342E0
4.173959583E-1,-2.177521820E0,8.603209534E0,2.853067017E-1,8.879088662E0
4.273259583E-1,-2.304457855E0,8.980425110E0,4.320016479E-1,9.281443130E0
4.372559583E-1,-2.597548370E0,9.364825745E0,4.945715332E-1,9.730972190E0
4.471869583E-1,-2.568658447E0,8.814420319E0,-1.402583313E-1,9.182139411E0
4.571169583E-1,-2.097588043E0,8.280630341E0,-8.449928284E-1,8.583864358E0
4.670469583E-1,5.009632416E0,2.966830444E0,3.932622070E0,7.025953044E0
4.769769583E-1,8.440198517E0,-2.994522858E0,6.017187195E0,1.078937718E1
4.869069583E-1,-7.639363861E0,4.282444611E0,-3.753893738E0,9.528427480E0
4.968369583E-1,-7.959697723E0,5.455854492E0,-4.788242798E0,1.077266936E1
5.067679583E-1,-7.467072144E0,6.268364868E0,-3.105891266E0,1.023211244E1
5.166979583E-1,-6.420149231E0,7.200925598E0,-2.348765717E0,9.929166431E0
5.266279583E-1,-3.000360718E0,7.864795074E0,-3.176095276E0,8.996929876E0
5.365579583E-1,-5.964197388E0,1.175131302E1,-3.686234436E0,1.368405395E1
5.464879583E-1,-4.095483398E-1,1.060364960E1,2.323468323E0,1.086294710E1
5.564179583E-1,-7.346123657E0,1.093401260E1,8.184380493E0,1.550813491E1
5.663489583E-1,-8.843160553E0,9.390123138E0,7.708070984E0,1.502631889E1
5.762789583E-1,-4.556973724E0,6.524931335E0,-7.011419678E-1,7.989514285E0
5.862089583E-1,-3.916006622E0,5.488486633E0,-4.738695831E0,8.240984867E0
5.961389583E-1,-4.246968384E0,5.661975861E0,-4.746180267E0,8.521791961E0
6.060695833E-1,-4.348906403E0,8.535849609E0,-4.467908936E0,1.057052154E1
6.160005833E-1,5.362299042E0,2.908511719E1,-2.808310089E0,2.970833045E1
6.259305833E-1,1.367571121E1,3.096266281E1,1.728755035E0,3.389247939E1
6.358605833E-1,3.064128113E-1,2.078547638E1,3.470682678E0,2.107547284E1
6.457905833E-1,-5.214107208E0,1.585742432E1,1.839973755E0,1.679375846E1
6.557205833E-1,-3.664529572E0,1.432550995E1,2.126777344E0,1.493894890E1
6.656505833E-1,-5.365741882E0,1.195548843E1,1.637744293E0,1.320632788E1
6.755815833E-1,-5.191504211E0,1.067490143E1,6.866221619E-1,1.189019287E1
6.855115833E-1,-4.390070801E0,1.068777466E1,1.234931946E-1,1.155493398E1
6.954415833E-1,-3.885170746E0,1.040621017E1,-2.874023438E-2,1.110786154E1
7.053715833E-1,-3.782035217E0,9.040150909E0,2.661465454E-1,9.803007336E0
7.153015833E-1,-2.177821198E0,7.671247559E0,1.792821808E0,8.173442011E0
7.252325833E-1,9.011260986E-2,5.922434235E0,1.950444031E0,6.235990656E0
7.351625833E-1,1.234931946E-1,5.697601776E0,-1.230141907E0,5.830194309E0
7.450925833E-1,5.294490051E-1,7.089856567E0,-2.295326843E0,7.470937539E0
7.550225833E-1,3.279679871E-1,7.562723236E0,-1.862427063E0,7.795574405E0
7.649525833E-1,-2.981799316E-1,8.115224304E0,-1.555565186E0,8.268346862E0
7.748825833E-1,-6.045927429E-1,8.215964813E0,-1.674867096E0,8.406711009E0
7.848135833E-1,-7.568261719E-1,8.127798157E0,-1.708996124E0,8.339937439E0
7.947435833E-1,-1.080453186E0,8.336763611E0,-1.523831177E0,8.543481026E0
8.046735833E-1,-1.559606781E0,8.751850433E0,-1.191671906E0,8.969244185E0
8.146035833E-1,-2.155068512E0,9.311386871E0,-7.622149658E-1,9.587868241E0
8.245335833E-1,-3.030897217E0,9.955497437E0,-3.697311401E-1,1.041321124E1
8.344635833E-1,-3.775598602E0,1.006447083E1,1.228944397E-1,1.075006143E1
8.443945833E-1,-4.033212891E0,1.017074982E1,-2.257305908E-1,1.094357859E1
8.543245833E-1,-4.096381531E0,1.044093796E1,-2.996768188E-1,1.121977421E1
8.642545833E-1,-4.047882385E0,1.056428146E1,-2.585124207E-1,1.131619297E1
8.741845833E-1,-3.554059296E0,9.950557709E0,-3.471281433E-1,1.057191724E1
8.841145833E-1,-2.870430908E0,9.514364777E0,-7.093748474E-1,9.963218525E0
8.940455833E-1,-2.160457306E0,8.981173553E0,-7.816744995E-1,9.270386680E0
9.039755833E-1,-1.882036285E0,8.802594910E0,-1.114881592E0,9.070319657E0
9.139055833E-1,-1.446891174E0,9.030421143E0,-1.514400787E0,9.270135373E0
9.238355833E-1,-9.604028320E-1,9.084309082E0,-1.319655762E0,9.229763617E0
9.337655833E-1,-4.749623108E-1,9.395511932E0,-1.417851562E0,9.513755133E0
9.436955833E-1,3.929328918E-1,9.813442841E0,-1.405726776E0,9.921397301E0
9.536265833E-1,1.156794434E0,1.051623138E1,-1.020128632E0,1.062873268E1
9.635565833E-1,1.788181458E0,1.121422989E1,-5.328918457E-1,1.136840000E1
9.734865833E-1,2.435285797E0,1.155507111E1,-5.284011841E-2,1.180902525E1
9.834165833E-1,2.867437134E0,1.166614014E1,2.601589966E-1,1.201618509E1
9.933465833E-1,2.663112030E0,1.072819061E1,-1.974394226E-1,1.105555163E1
1.003277583E0,1.615440674E0,8.064180450E0,5.971083069E-1,8.246041065E0
1.013207583E0,1.043330383E-1,4.079915771E0,3.303181000E0,5.250485959E0
1.023137583E0,-1.905986481E0,4.978646851E-1,6.838229828E0,7.116322146E0
1.033067583E0,-4.171974335E0,-7.729925537E-1,8.048014069E0,9.097989766E0
1.042997583E0,-4.780009918E0,6.421646118E-1,6.777007141E0,8.317974272E0
1.052927583E0,-4.163891144E0,3.009791107E0,5.723497925E0,7.691245703E0
1.062858583E0,-3.584146729E0,5.943690033E0,6.078260193E0,9.225985365E0
1.072788583E0,-2.160606995E0,8.323291626E0,6.586603088E0,1.083183947E1
1.082718583E0,2.722837830E-1,9.584868164E0,6.709347839E0,1.170295623E1
1.092648583E0,2.633174286E0,9.983938293E0,4.755460968E0,1.136780716E1
1.102578583E0,3.344644775E0,8.995244293E0,2.348466339E0,9.880099327E0
1.112508583E0,2.093097382E0,6.798712006E0,4.103267212E0,8.212206975E0
1.122439583E0,1.604812775E0,5.184319153E0,9.007668457E0,1.051621035E1
1.132369583E0,2.253563690E0,5.221591644E0,1.208257416E1,1.335410674E1
1.142299583E0,9.523196411E-1,6.513255615E0,1.092607910E1,1.275572875E1
1.152229583E0,-2.583627319E0,8.204738159E0,8.580905914E0,1.215009484E1
1.162159583E0,-6.040538635E0,1.109118576E1,7.356302490E0,1.461566608E1
1.172090583E0,-7.775730286E0,1.552227127E1,6.584507446E0,1.856767689E1
1.182020583E0,-7.037615204E0,1.950189560E1,5.651347961E0,2.148929253E1
1.191950583E0,-5.701044617E0,2.236693771E1,6.162085876E0,2.389043982E1
1.201880583E0,-5.342091064E0,2.488919266E1,7.474556580E0,2.653071511E1
1.211810583E0,-5.225483551E0,2.671359879E1,7.354057159E0,2.819581875E1
1.221740583E0,-4.427642670E0,2.684981552E1,6.125561829E0,2.789335263E1
1.231671583E0,-3.894152069E0,2.594614471E1,5.411846008E0,2.678908216E1
1.241601583E0,-2.641706543E0,2.399540131E1,4.591102753E0,2.457307717E1
1.251531583E0,-7.848179626E-1,2.211111969E1,3.128943329E0,2.234519724E1
1.261461583E0,-1.111289062E0,2.143572418E1,1.920805664E0,2.155028373E1
1.271391583E0,-8.493338013E-1,2.202040833E1,6.512956238E-1,2.204640417E1
1.281322583E0,-1.164578247E0,2.417397995E1,-5.390290833E-1,2.420801730E1
1.291252583E0,-1.952988739E0,2.785422684E1,-1.618733826E0,2.796949082E1
1.301182583E0,-3.175945587E0,2.980482056E1,-3.100502472E0,3.013348759E1
1.311112583E0,-2.824027405E0,2.535801773E1,-1.773961029E0,2.557637839E1
1.321042583E0,-1.700463867E-1,1.869761810E1,1.617087250E0,1.876818611E1
1.330972583E0,-4.535568237E-1,1.256397308E1,3.214565277E0,1.297661602E1
1.340903583E0,-5.798941040E-1,6.997348938E0,3.848946075E0,8.007094056E0
1.350833583E0,1.415306854E0,2.504441986E0,2.488275604E0,3.803529760E0
1.360763583E0,4.349954224E0,1.442250824E0,-2.763403473E0,5.351503335E0
1.370693583E0,2.161355438E0,2.539169769E0,-8.111482086E0,8.770118704E0
1.380623583E0,-1.824705505E0,5.676645355E0,-7.279661865E0,9.409959062E0
1.390554583E0,-8.055498505E0,7.297624512E0,1.577270050E0,1.098335834E1
1.400484583E0,-1.246502884E1,5.367987213E0,9.122180328E0,1.635256569E1
1.410414583E0,-8.074059906E0,3.582350464E0,9.681567078E0,1.310558733E1
1.420344583E0,-2.181713104E0,2.475701752E0,7.175029449E0,7.897469141E0
1.430274583E0,5.009931793E0,5.435197449E-1,2.352957001E0,5.561585829E0
1.440204583E0,1.071561676E1,-1.218017120E0,-2.610571289E-1,1.078777823E1
1.450135583E0,1.091365494E1,-3.049757996E0,-3.105442200E0,1.174958123E1
1.460065583E0,8.663384399E0,-4.425097961E0,-4.681365051E0,1.079587421E1
1.469995583E0,5.585185547E0,-4.135450287E0,-4.761298828E0,8.424144657E0
1.479925583E0,3.326532440E0,-2.991978149E0,-4.714446259E0,6.499519586E0
1.489855583E0,1.443598022E0,-1.561103668E0,-4.579277344E0,5.048841541E0
1.499786583E0,-1.209933929E0,-3.553610229E-1,-4.282145233E0,4.463965655E0
1.509716583E0,-3.259172516E0,-1.507365417E-1,-3.042423248E0,4.461083525E0
1.519646583E0,-4.034859467E0,-1.564247131E-1,-5.345384216E-1,4.073118084E0
1.529576583E0,-4.741988983E0,-3.185375977E-1,1.218466187E0,4.906382126E0
1.539506583E0,-4.531826019E0,-8.662486267E-1,1.582808533E0,4.877818837E0
1.549436583E0,-3.830085297E0,-1.265468445E0,1.480271759E0,4.296762531E0
1.559367583E0,-3.329825592E0,-1.441502380E0,1.338067474E0,3.867310713E0
1.569297583E0,-2.946772156E0,-1.263672180E0,1.216220856E0,3.429216629E0
1.579227583E0,-2.718796234E0,-7.979905701E-1,5.658233643E-1,2.889428662E0
1.589157583E0,-2.528392181E0,-1.725910950E-1,-5.123844910E-1,2.585554597E0
1.599087583E0,-2.102827148E0,4.523593140E-1,-1.187031555E0,2.456736632E0
1.609017708E0,-1.438508606E0,8.638536072E-1,-9.213340759E-1,1.914263969E0
1.618948708E0,-3.959266663E-1,5.884263611E-1,-4.430786133E-2,7.106100858E-1
1.628878708E0,7.360194397E-1,-1.757345581E-1,7.816744995E-1,1.087944058E0
1.638808708E0,1.637295227E0,-7.798782349E-1,1.315015411E0,2.240136436E0
1.648738708E0,1.979034576E0,-1.035396881E0,1.430275726E0,2.652227971E0
1.658668708E0,1.716929626E0,-9.527687073E-1,1.136137390E0,2.268573058E0
1.668599708E0,1.028960266E0,-7.729925537E-1,7.185058594E-1,1.473949588E0
1.678529708E0,2.778222656E-1,-5.105882263E-1,2.758763123E-1,6.434231017E-1
1.688459708E0,-3.549119568E-1,-1.845661926E-1,-1.722917175E-1,4.355589655E-1
1.698389708E0,-8.765771484E-1,2.142045593E-1,-5.206173706E-1,1.041783824E0
1.708319708E0,-1.222807159E0,6.920109558E-1,-7.704478455E-1,1.602412679E0
1.718249708E0,-1.269360352E0,1.110241241E0,-9.997709656E-1,1.960472724E0
1.728180708E0,-9.355545044E-1,1.240919495E0,-1.286574554E0,2.017527573E0
1.738110708E0,-4.408332825E-1,9.081614685E-1,-1.324146423E0,1.665069064E0
1.748040708E0,-3.239263916E-1,8.084687805E-1,-1.054407349E0,1.367598235E0
1.757970708E0,-1.266516266E0,3.404969330E0,-2.830613708E-1,3.643899467E0
1.767900708E0,-3.487298126E0,8.849148102E0,1.823507996E0,9.684722596E0
1.777831708E0,-5.419779510E0,1.592283829E1,4.031117249E0,1.729626247E1
1.787761708E0,-6.835685120E0,2.400647827E1,5.945635986E-1,2.496780118E1
1.797691708E0,-7.439828796E0,3.295262466E1,-9.956545258E0,3.521873533E1
1.807621708E0,-1.064795746E1,4.405877930E1,-1.943199097E1,4.931690688E1
1.817551708E0,-1.152124146E1,5.357973038E1,4.835245056E0,5.501732551E1
1.827481708E0,3.105442200E0,6.196244843E1,5.945007294E1,8.592613082E1
1.837412708E0,1.478250961E1,6.000227463E1,2.813339630E1,6.789906876E1
1.847342708E0,2.906505890E0,3.330289627E1,-1.695853455E1,3.748496459E1
1.857272708E0,-5.145699463E0,1.407253601E1,-2.589899277E1,2.992110157E1
1.867202708E0,-9.149273987E0,4.919669495E0,-1.403870636E1,1.746418159E1
1.877132708E0,-1.116543137E1,-1.049467621E0,-2.307451630E0,1.144956649E1
1.887063708E0,-1.098864899E1,-2.430645447E0,3.274590454E0,1.172098061E1
1.896993708E0,-9.063202972E0,3.050656128E-1,3.574267273E0,9.747312434E0
1.906923708E0,-5.639372864E0,9.269474030E0,3.971840515E0,1.155427160E1
1.916853708E0,-1.174308014E0,1.415217041E1,3.819756775E0,1.470555910E1
1.926783708E0,3.821553040E0,1.592553268E1,9.624984741E-2,1.637791571E1
1.936713708E0,6.457870789E0,1.709070969E1,-2.328557739E0,1.841788896E1
1.946644708E0,6.869514771E0,1.669029236E1,-1.854044495E0,1.814369238E1
1.956574708E0,4.386178894E0,1.594738724E1,1.199156342E0,1.658299433E1
1.966504708E0,2.684218140E0,1.466440521E1,3.158432007E0,1.523894681E1
1.976434708E0,3.734583893E0,1.225142303E1,4.146227875E0,1.346238050E1
1.986364708E0,3.573967896E0,9.580676880E0,2.067949677E0,1.043259468E1
1.996294708E0,2.437680817E0,7.465425568E0,6.385720825E-1,7.879253834E0
2.006225708E0,1.419348450E0,5.761518860E0,4.908293152E-1,5.954037539E0
2.016155708E0,-6.667135620E-1,4.506229248E0,-8.592132568E-1,4.635607450E0
2.026085708E0,-3.629951477E0,3.509002991E0,-2.671045532E0,5.711754017E0
2.036015708E0,-6.021977234E0,2.717598724E0,-1.900897064E0,6.874806345E0
2.045945708E0,-6.824458466E0,2.722538452E0,1.068328400E0,7.424740705E0
2.055876708E0,-6.081104279E0,3.649560699E0,2.828518066E0,7.635419897E0
2.065806708E0,-3.751199341E0,5.211113434E0,2.710563354E0,6.969530358E0
2.075736708E0,-1.957629089E0,6.642436981E0,2.125579834E0,7.243781494E0
2.085666708E0,-7.132667542E-1,8.116421814E0,1.829794922E0,8.350640813E0
2.095596708E0,1.562750244E-1,9.593550110E0,1.362766113E0,9.691117432E0
2.105526708E0,5.947132874E-1,1.104388412E1,6.556365967E-1,1.107930141E1
2.115457708E0,5.349874878E-1,1.229004272E1,1.196012878E-1,1.230226265E1
2.125387708E0,2.025288391E-1,1.303040314E1,8.337661743E-2,1.303224369E1
2.135317708E0,-1.380130005E-1,1.301169205E1,5.429209900E-1,1.302374526E1
2.145247708E0,-9.160949707E-2,1.223929825E1,8.511300659E-1,1.226919868E1
2.155177708E0,-7.813751221E-2,1.113639175E1,1.043330383E0,1.118543093E1
2.165108708E0,-2.451901245E-1,1.035112473E1,1.142424316E0,1.041686299E1
2.175038708E0,-4.643344116E-1,9.898915100E0,1.106199646E0,9.971349170E0
2.184968708E0,-6.511459351E-1,9.592651978E0,1.003513184E0,9.666954107E0
2.194898708E0,-7.580236816E-1,9.334289246E0,8.942404175E-1,9.407615083E0
2.204828708E0,-8.357121277E-1,9.186396790E0,6.988966370E-1,9.250770630E0
2.214758708E0,-9.129515076E-1,9.162296906E0,2.451901245E-1,9.210932810E0
2.224689708E0,-1.054557037E0,9.275162201E0,-3.956272888E-1,9.343299489E0
2.234619708E0,-1.195563812E0,9.436227264E0,-9.523196411E-1,9.559219137E0
2.244549708E0,-1.325194244E0,9.471254425E0,-1.238225098E0,9.643339751E0
2.254479708E0,-1.354682922E0,9.339977417E0,-1.209784241E0,9.514931523E0
2.264409708E0,-1.234033813E0,9.184001770E0,-1.007854156E0,9.321185438E0
2.274340708E0,-1.128353577E0,9.161698151E0,-7.927514648E-1,9.264898795E0
2.284270708E0,-1.015637970E0,9.244625702E0,-5.767506409E-1,9.318114946E0
2.294200708E0,-9.044192505E-1,9.436227264E0,-3.538641357E-1,9.486072896E0
2.304130708E0,-7.701484680E-1,9.631121979E0,-1.862127686E-1,9.663659474E0
2.314060708E0,-6.761439514E-1,9.767039337E0,-1.413061523E-1,9.791434802E0
2.323990708E0,-7.018904114E-1,9.919272766E0,-2.854563904E-1,9.948171074E0
2.333921708E0,-7.041357422E-1,1.003273682E1,-5.111869812E-1,1.007039857E1
2.343851708E0,-7.259902954E-1,9.952653351E0,-7.529342651E-1,1.000746125E1
2.353781708E0,-7.819738770E-1,9.871522064E0,-9.982740784E-1,9.952636944E0
2.363711708E0,-8.202941895E-1,9.842033386E0,-1.183588715E0,9.946827935E0
2.373641708E0,-8.741821289E-1,9.774074707E0,-1.243464203E0,9.891558724E0
2.383571708E0,-1.005459137E0,9.726024628E0,-1.181044006E0,9.848927255E0
2.393502708E0,-1.036594391E0,9.660161591E0,-1.088386688E0,9.776391741E0
2.403432708E0,-1.073118439E0,9.573491821E0,-1.004860382E0,9.685714905E0
2.413362708E0,-1.063089294E0,9.493707733E0,-1.060843964E0,9.611765461E0
2.423292708E0,-9.557624817E-1,9.444310455E0,-1.117725677E0,9.558127044E0
2.433222708E0,-8.599617004E-1,9.462273102E0,-1.204395447E0,9.577302061E0
2.443153708E0,-7.918533325E-1,9.564211121E0,-1.256487122E0,9.678839081E0
2.453083708E0,-7.467970276E-1,9.680818634E0,-1.267115021E0,9.791911749E0
2.463013708E0,-7.418572998E-1,9.841883698E0,-1.261277161E0,9.950067690E0
2.472943708E0,-6.626719666E-1,9.913584595E0,-1.129700775E0,9.999725871E0
2.482873708E0,-5.882766724E-1,9.915979614E0,-1.000818787E0,9.983704693E0
2.492803708E0,-5.134323120E-1,9.923314362E0,-9.168434143E-1,9.978796646E0
2.502734708E0,-4.477189636E-1,9.903854828E0,-9.274713135E-1,9.957258446E0
2.512664708E0,-4.224215698E-1,9.860445099E0,-9.434880066E-1,9.914483706E0
2.522594708E0,-4.396357727E-1,9.819280701E0,-9.722282410E-1,9.877083620E0
2.532524708E0,-4.881349182E-1,9.788444824E0,-1.023272095E0,9.853883171E0
2.542454708E0,-5.417234802E-1,9.751920776E0,-1.054407349E0,9.823705921E0
2.552385708E0,-5.372328186E-1,9.704768829E0,-1.067280579E0,9.778049139E0
2.562315708E0,-5.502557373E-1,9.638606415E0,-1.080902252E0,9.714621180E0
2.572245708E0,-6.131250000E-1,9.592053223E0,-1.111588440E0,9.675693058E0
2.582175708E0,-6.840774536E-1,9.592801666E0,-1.166524200E0,9.687651133E0
2.592105708E0,-7.420069885E-1,9.644144897E0,-1.171763306E0,9.743363609E0
2.602035375E0,-7.587721252E-1,9.678573303E0,-1.164278870E0,9.777835221E0
2.611966375E0,-7.617658997E-1,9.763147430E0,-1.140777740E0,9.859041986E0
2.621896375E0,-6.680607605E-1,9.668244781E0,-1.165476379E0,9.761126857E0
2.631826375E0,-7.744894409E-1,9.673184509E0,-1.253493347E0,9.784762543E0
2.641756375E0,-7.553292847E-1,9.786199493E0,-1.200653229E0,9.888467577E0
2.651686375E0,-7.032376099E-1,9.824070740E0,-1.240320740E0,9.926998770E0
2.661617375E0,-7.216493225E-1,9.805209961E0,-1.347647552E0,9.923662330E0
2.671547375E0,-7.722441101E-1,9.756411438E0,-1.409468994E0,9.887898056E0
2.681477375E0,-8.366102600E-1,9.706415405E0,-1.397643585E0,9.842145312E0
2.691407375E0,-8.729846191E-1,9.679471436E0,-1.366059265E0,9.814295050E0
2.701337375E0,-9.318122864E-1,9.650431824E0,-1.326242065E0,9.785603024E0
2.711267375E0,-9.735754395E-1,9.618847504E0,-1.270408173E0,9.751103187E0
2.721198375E0,-9.818083191E-1,9.620943146E0,-1.275946655E0,9.754718574E0
2.731128375E0,-9.360035706E-1,9.638756104E0,-1.309626617E0,9.772248655E0
2.741058375E0,-9.111552429E-1,9.658515015E0,-1.378333740E0,9.798822382E0
2.750988375E0,-9.523196411E-1,9.691446533E0,-1.426383820E0,9.842033296E0
2.760918375E0,-1.033750305E0,9.725725250E0,-1.377734985E0,9.877070670E0
2.770849375E0,-1.122366028E0,9.712852020E0,-1.302291870E0,9.863831101E0
2.780779375E0,-1.086141357E0,9.662855988E0,-1.231339417E0,9.801361418E0
2.790709375E0,-9.806108093E-1,9.646090851E0,-1.225950623E0,9.773004717E0
2.800639375E0,-8.277786255E-1,9.695488129E0,-1.244661713E0,9.810040279E0
2.810569375E0,-7.229965210E-1,9.716145172E0,-1.266516266E0,9.824981650E0
2.820499375E0,-6.251000977E-1,9.699080658E0,-1.339414673E0,9.811062501E0
2.830430375E0,-6.539900208E-1,9.661957855E0,-1.285077667E0,9.768958857E0
2.840360375E0,-6.355783081E-1,9.651030579E0,-1.168320465E0,9.742244286E0
2.850290375E0,-5.897735596E-1,9.651779022E0,-1.100062408E0,9.732153330E0
2.860220375E0,-5.025050354E-1,9.682016144E0,-1.066083069E0,9.753485584E0
2.870150375E0,-4.805007935E-1,9.713450775E0,-1.075064392E0,9.784567973E0
2.880081375E0,-4.110452271E-1,9.805060272E0,-1.153650970E0,9.881248690E0
2.890011375E0,-3.228785706E-1,9.839788055E0,-1.168320465E0,9.914164224E0
2.899941375E0,-3.495231628E-1,9.810000000E0,-1.209335175E0,9.890437705E0
2.909871375E0,-5.080435181E-1,9.825268250E0,-1.209933929E0,9.912514540E0
2.919801375E0,-5.758525085E-1,9.876012726E0,-1.208287354E0,9.966302815E0
2.929731375E0,-6.068380737E-1,9.948611755E0,-1.131646729E0,1.003113915E1
2.939662375E0,-6.183641052E-1,9.959988098E0,-1.021176453E0,1.003127801E1
2.949592375E0,-6.442602539E-1,9.898615723E0,-1.029109955E0,9.972799597E0
2.959522375E0,-7.048841858E-1,9.855355682E0,-1.006656647E0,9.931679362E0
2.969452375E0,-8.042774963E-1,9.834099884E0,-9.057664490E-1,9.908420443E0
2.979382375E0,-8.436456299E-1,9.734556885E0,-9.038204956E-1,9.812758388E0
2.989312375E0,-8.984317017E-1,9.691147156E0,-9.961784363E-1,9.783551717E0
2.999243375E0,-8.851094055E-1,9.672735443E0,-1.060245209E0,9.770841802E0
3.009173375E0,-8.193960571E-1,9.703721008E0,-1.050665131E0,9.794769447E0
3.019103375E0,-7.098239136E-1,9.713151398E0,-9.839039612E-1,9.788627435E0
3.029033375E0,-6.435118103E-1,9.748178558E0,-8.909472656E-1,9.809937802E0
3.038963375E0,-5.882766724E-1,9.784403229E0,-8.815168762E-1,9.841630352E0
3.048894375E0,-5.462141418E-1,9.808652802E0,-9.639953613E-1,9.871033721E0
3.058824375E0,-5.610333252E-1,9.803264008E0,-1.003962250E0,9.870495620E0
3.068754375E0,-5.261558533E-1,9.751771088E0,-1.014590149E0,9.818516818E0
3.078684375E0,-5.704637146E-1,9.779014435E0,-1.101110229E0,9.857332089E0
3.088614375E0,-4.475692749E-1,9.710007935E0,-1.134041748E0,9.786246626E0
3.098544375E0,-5.477110291E-1,9.618248749E0,-1.302441559E0,9.721473673E0
3.108475375E0,-6.520440674E-1,9.696386261E0,-1.317709808E0,9.807213015E0
3.118405375E0,-6.912625122E-1,9.744885406E0,-1.247356110E0,9.848681775E0
3.128335375E0,-6.972500610E-1,9.749226379E0,-1.238674164E0,9.852303605E0
3.138265375E0,-7.466473389E-1,9.740245056E0,-1.267264709E0,9.850675908E0
3.148195375E0,-7.885601807E-1,9.720186768E0,-1.245559845E0,9.831341581E0
3.158126375E0,-8.439450073E-1,9.775122528E0,-1.231788483E0,9.888506787E0
3.168056375E0,-7.153623962E-1,9.733509064E0,-1.177900543E0,9.830584507E0
3.177986375E0,-7.313790894E-1,9.579179993E0,-1.368753662E0,9.704076014E0
3.187916375E0,-7.942483521E-1,9.676477661E0,-1.432820435E0,9.814174686E0
3.197846375E0,-7.873626709E-1,9.721983032E0,-1.360820160E0,9.848285412E0
3.207776375E0,-7.723937988E-1,9.704170074E0,-1.313518524E0,9.823076907E0
3.217707375E0,-7.876620483E-1,9.690997467E0,-1.310075684E0,9.810817586E0
3.227637375E0,-8.060737610E-1,9.683662720E0,-1.355880432E0,9.811294019E0
3.237567375E0,-8.175997925E-1,9.699380035E0,-1.343456268E0,9.826052984E0
3.247497375E0,-7.893086243E-1,9.718540192E0,-1.304986267E0,9.837480405E0
3.257427375E0,-7.511380005E-1,9.803563385E0,-1.303489380E0,9.918323845E0
3.267358375E0,-5.990542603E-1,9.723928986E0,-1.218017120E0,9.818208932E0
3.277288375E0,-5.792953491E-1,9.568103027E0,-1.339863739E0,9.678812607E0
3.287218375E0,-6.143225098E-1,9.714498596E0,-1.407223663E0,9.835098045E0
3.297148375E0,-6.099815369E-1,9.802814941E0,-1.387764130E0,9.919332010E0
3.307078375E0,-6.114784241E-1,9.768536224E0,-1.331032104E0,9.877745304E0
3.317008375E0,-7.508386230E-1,9.730664978E0,-1.307530975E0,9.846788147E0
3.326939375E0,-9.303153992E-1,9.770931244E0,-1.241069183E0,9.893272302E0
3.336869375E0,-9.795629883E-1,9.900561676E0,-1.160686340E0,1.001637948E1
3.346799375E0,-1.029409332E0,9.790690155E0,-1.163530426E0,9.913178115E0
3.356729375E0,-1.023421783E0,9.743238831E0,-1.228944397E0,9.873621392E0
3.366659375E0,-9.562115479E-1,9.678273926E0,-1.225202179E0,9.802267446E0
3.376589375E0,-9.012757874E-1,9.649234314E0,-1.166973267E0,9.761242108E0
3.386520375E0,-8.568182373E-1,9.681417389E0,-1.164278870E0,9.788744835E0
3.396450375E0,-8.285270691E-1,9.702822876E0,-1.187929688E0,9.810321392E0
3.406380375E0,-7.954458618E-1,9.822124786E0,-1.155147858E0,9.921755692E0
3.416310375E0,-7.382647705E-1,9.620643768E0,-1.149609375E0,9.717171559E0
3.426240375E0,-7.351213074E-1,9.577982483E0,-1.308578796E0,9.694871337E0
3.436171375E0,-7.325765991E-1,9.643097076E0,-1.360670471E0,9.766136075E0
3.446101375E0,-7.761360168E-1,9.656119995E0,-1.300944672E0,9.774226185E0
3.456031375E0,-8.002359009E-1,9.651479645E0,-1.268013153E0,9.767256226E0
3.465961375E0,-8.114625549E-1,9.646988983E0,-1.226100311E0,9.758390743E0
3.475891375E0,-7.539820862E-1,9.657766571E0,-1.199455719E0,9.761128938E0
3.485821375E0,-6.216572571E-1,9.673334198E0,-1.183439026E0,9.765263959E0
3.495752375E0,-4.731660461E-1,9.696535950E0,-1.156345367E0,9.776698325E0
3.505682375E0,-3.487747192E-1,9.732311554E0,-1.122964783E0,9.803090426E0
3.515612375E0,-2.586621094E-1,9.757010193E0,-1.098864899E0,9.822100491E0
3.525542375E0,-1.962419128E-1,9.794582062E0,-1.072819061E0,9.855114885E0
3.535472375E0,-1.592687988E-1,9.801767120E0,-1.050066376E0,9.859140157E0
3.545403375E0,-1.332229614E-1,9.801617432E0,-1.040935364E0,9.857636586E0
3.555333375E0,-1.697470093E-1,9.803114319E0,-1.047072601E0,9.860335969E0
3.565263375E0,-2.877017212E-1,9.797426147E0,-1.050515442E0,9.857784441E0
3.575193375E0,-4.022135925E-1,9.756261749E0,-1.056502991E0,9.821538457E0
3.585123375E0,-4.689747620E-1,9.711654510E0,-1.052311707E0,9.779751049E0
3.595053375E0,-4.909790039E-1,9.691895599E0,-1.050365753E0,9.761002454E0
3.604984250E0,-4.914280701E-1,9.690548401E0,-1.092727661E0,9.764337335E0
3.614914250E0,-5.057981873E-1,9.743538208E0,-1.160985718E0,9.825490138E0
3.624844250E0,-5.194198608E-1,9.779762878E0,-1.198258209E0,9.866579026E0
3.634774250E0,-5.364843750E-1,9.795779572E0,-1.213975525E0,9.885284491E0
3.644704250E0,-6.041436768E-1,9.756561127E0,-1.222058716E0,9.851340117E0
3.654635250E0,-7.062313843E-1,9.735604706E0,-1.211131439E0,9.836035844E0
3.664565250E0,-7.914042664E-1,9.730664978E0,-1.218615875E0,9.838556107E0
3.674495250E0,-8.475375366E-1,9.759255524E0,-1.256487122E0,9.876241600E0
3.684425250E0,-7.996371460E-1,9.742939453E0,-1.219813385E0,9.851509196E0
3.694355250E0,-1.000968475E0,9.737101593E0,-1.337169342E0,9.879327263E0
3.704285250E0,-1.102008362E0,9.717642059E0,-1.320404205E0,9.868660339E0
3.714216250E0,-1.054706726E0,9.710307312E0,-1.235081635E0,9.845196850E0
3.724146250E0,-9.729766846E-1,9.769883423E0,-1.224453735E0,9.894270699E0
3.734076250E0,-9.569599915E-1,9.755064240E0,-1.293759613E0,9.886903695E0
3.744006250E0,-9.377998352E-1,9.682914276E0,-1.269809418E0,9.810744792E0
3.753936250E0,-8.318202209E-1,9.638157349E0,-1.222358093E0,9.750905664E0
3.763866250E0,-7.144642639E-1,9.656569061E0,-1.261127472E0,9.764744120E0
3.773797250E0,-6.610253906E-1,9.710756378E0,-1.332229614E0,9.823979832E0
3.783727250E0,-7.104226685E-1,9.771080933E0,-1.313967590E0,9.884595783E0
3.793657250E0,-7.741900635E-1,9.785301361E0,-1.190175018E0,9.887770707E0
3.803587250E0,-7.493417358E-1,9.791588287E0,-1.063238983E0,9.877610610E0
3.813517250E0,-6.619235229E-1,9.780211945E0,-9.961784363E-1,9.853073627E0
3.823448250E0,-6.167175293E-1,9.787846069E0,-9.526190186E-1,9.853413326E0
3.833378250E0,-6.108796692E-1,9.776769104E0,-9.351054382E-1,9.840366368E0
3.843308250E0,-5.956114197E-1,9.747130737E0,-9.809101868E-1,9.814453391E0
3.853238250E0,-5.647755432E-1,9.715097351E0,-1.043180695E0,9.787252624E0
3.863168250E0,-5.703140259E-1,9.692793732E0,-1.070274353E0,9.768367090E0
3.873098250E0,-5.757028198E-1,9.717192993E0,-1.039588165E0,9.789587170E0
3.883029250E0,-5.525010681E-1,9.755812683E0,-1.027014313E0,9.825268288E0
3.892959250E0,-5.110372925E-1,9.785750427E0,-1.015188904E0,9.851531812E0
3.902889250E0,-4.652325439E-1,9.801617432E0,-1.021625519E0,9.865691273E0
3.912819250E0,-4.770579529E-1,9.805958405E0,-1.036444702E0,9.872113357E0
3.922749250E0,-5.251080322E-1,9.787995758E0,-1.074615326E0,9.860801058E0
3.932680250E0,-5.664221191E-1,9.758507080E0,-1.132095795E0,9.840271101E0
3.942610250E0,-6.137237549E-1,9.721084900E0,-1.170865173E0,9.810559298E0
3.952540250E0,-6.403683472E-1,9.700876923E0,-1.194815369E0,9.795134938E0
3.962470250E0,-6.623725891E-1,9.686656494E0,-1.189576263E0,9.781878305E0
3.972400250E0,-7.252418518E-1,9.735904083E0,-1.089284821E0,9.823458937E0
3.982330250E0,-8.518785095E-1,9.748927002E0,-1.049467621E0,9.842187611E0
3.992261250E0,-9.042695618E-1,9.688452759E0,-1.002315674E0,9.782047690E0
4.002191250E0,-8.416996765E-1,9.696535950E0,-9.922865295E-1,9.783450328E0
4.012121250E0,-7.177574158E-1,9.749076691E0,-1.086291046E0,9.835634208E0
4.022051250E0,-6.598278809E-1,9.763746185E0,-1.186881866E0,9.857727982E0
4.031981250E0,-6.668632507E-1,9.719737701E0,-1.223256226E0,9.819081595E0
4.041912250E0,-6.550378418E-1,9.688153381E0,-1.163680115E0,9.779751629E0
4.051842250E0,-6.134243774E-1,9.690398712E0,-1.137783966E0,9.776229796E0
4.061772250E0,-5.785469055E-1,9.714498596E0,-1.169517975E0,9.801733101E0
4.071702250E0,-6.164181519E-1,9.773925018E0,-1.155596924E0,9.861287231E0
4.081632250E0,-6.890171814E-1,9.783205719E0,-1.117575989E0,9.870908515E0
4.091562250E0,-7.042854309E-1,9.766889648E0,-1.074016571E0,9.850972691E0
4.101493250E0,-6.770420837E-1,9.749376068E0,-1.047521667E0,9.828836215E0
4.111423250E0,-6.583309937E-1,9.760303345E0,-1.036594391E0,9.837248040E0
4.121353250E0,-6.713539124E-1,9.745484161E0,-1.056802368E0,9.825579314E0
4.131283250E0,-6.762936401E-1,9.721084900E0,-1.019978943E0,9.797817194E0
4.141213250E0,-6.625222778E-1,9.707014160E0,-9.963281250E-1,9.780476952E0
4.151144250E0,-6.474037170E-1,9.744136963E0,-1.022523651E0,9.819006637E0
4.161074250E0,-6.590794373E-1,9.788444824E0,-1.044228516E0,9.866025085E0
4.171004250E0,-6.810836792E-1,9.820029144E0,-1.016685791E0,9.895983901E0
4.180934250E0,-7.164102173E-1,9.848919067E0,-9.743238831E-1,9.922890578E0
4.190864250E0,-7.626640320E-1,9.811496887E0,-9.756710815E-1,9.889340810E0
4.200794250E0,-7.490423584E-1,9.738897858E0,-9.961784363E-1,9.818328137E0
4.210725250E0,-7.771838379E-1,9.662855988E0,-1.037791901E0,9.749451912E0
4.220655250E0,-8.469387817E-1,9.636510773E0,-1.033750305E0,9.728735009E0
4.230585250E0,-8.225395203E-1,9.690099335E0,-1.022373962E0,9.778540019E0
4.240515250E0,-7.433541870E-1,9.742789764E0,-9.991722107E-1,9.822060525E0
4.250445250E0,-6.411167908E-1,9.765243073E0,-1.069525909E0,9.844535981E0
4.260376250E0,-5.622308350E-1,9.759405212E0,-1.120719452E0,9.839619185E0
4.270306250E0,-5.204676819E-1,9.758956146E0,-1.118923187E0,9.836671224E0
4.280236250E0,-4.947212219E-1,9.728419647E0,-1.118174744E0,9.804958576E0
4.290166250E0,-4.531077576E-1,9.691296844E0,-1.111887817E0,9.765389684E0
4.300096250E0,-4.640350342E-1,9.704768829E0,-1.119222565E0,9.780108675E0
4.310026250E0,-5.222639465E-1,9.750872955E0,-1.144669647E0,9.831711531E0
4.319957250E0,-5.774990845E-1,9.767039337E0,-1.152603149E0,9.851753987E0
4.329887250E0,-6.256988525E-1,9.751172333E0,-1.149309998E0,9.838585995E0
4.339817250E0,-7.020401001E-1,9.742340698E0,-1.149160309E0,9.834969852E0
4.349747250E0,-8.014334106E-1,9.765991516E0,-1.102307739E0,9.860627169E0
4.359677250E0,-8.732839966E-1,9.791139221E0,-1.053658905E0,9.886315253E0
4.369607250E0,-8.556207275E-1,9.791887665E0,-1.036295013E0,9.883676352E0
4.379538250E0,-7.954458618E-1,9.776469727E0,-1.065184937E0,9.866443806E0
4.389468250E0,-7.580236816E-1,9.759255524E0,-1.102457428E0,9.850537075E0
4.399398250E0,-7.520361328E-1,9.754315796E0,-1.068777466E0,9.841469416E0
4.409328250E0,-7.750881958E-1,9.737850037E0,-1.003213806E0,9.820026629E0
4.419258250E0,-7.846682739E-1,9.725425873E0,-9.807604980E-1,9.806197217E0
4.429189250E0,-7.560777283E-1,9.721084900E0,-9.621990967E-1,9.797804461E0
4.439119250E0,-7.484436035E-1,9.730215912E0,-1.012195129E0,9.811310234E0
4.449049250E0,-8.111631775E-1,9.785900116E0,-1.024020538E0,9.872712132E0
4.458979250E0,-8.370593262E-1,9.816436615E0,-1.002615051E0,9.902945677E0
4.468909250E0,-8.496331787E-1,9.802964630E0,-9.204359436E-1,9.882671420E0
4.478839250E0,-8.623567200E-1,9.791588287E0,-8.509803772E-1,9.866257036E0
4.488770250E0,-8.497828674E-1,9.733209686E0,-8.710386658E-1,9.808986190E0
4.498700250E0,-7.716453552E-1,9.659712524E0,-9.244775391E-1,9.734482078E0
4.508630250E0,-6.277944946E-1,9.641001434E0,-9.541159058E-1,9.708417572E0
4.518560250E0,-5.327421570E-1,9.626930695E0,-9.789642334E-1,9.691232108E0
4.528490250E0,-5.029541016E-1,9.631571045E0,-1.070873108E0,9.703962739E0
4.538421250E0,-5.207670593E-1,9.695188751E0,-1.114582214E0,9.772930818E0
4.548351250E0,-5.342390442E-1,9.779912567E0,-1.103654938E0,9.856477839E0
4.558281250E0,-5.345384216E-1,9.839638367E0,-1.049168243E0,9.909842003E0
4.568211250E0,-5.429209900E-1,9.834099884E0,-1.037791901E0,9.903600141E0
4.578141250E0,-5.405259705E-1,9.793683929E0,-9.767189026E-1,9.857098612E0
4.588071250E0,-5.620811462E-1,9.776469727E0,-9.208850098E-1,9.835818458E0
4.598002250E0,-5.996530151E-1,9.787995758E0,-9.003776550E-1,9.847594865E0
4.607932125E0,-6.683601379E-1,9.788295135E0,-8.849597168E-1,9.850917756E0
4.617862125E0,-7.514373779E-1,9.761201477E0,-8.789721680E-1,9.829461047E0
4.627792125E0,-7.524851990E-1,9.740245056E0,-8.800199890E-1,9.808824747E0
4.637722125E0,-6.932084656E-1,9.741592255E0,-8.738827515E-1,9.805244958E0
4.647653125E0,-6.813830566E-1,9.733359375E0,-8.807684326E-1,9.796852588E0
4.657583125E0,-6.948550415E-1,9.740843811E0,-8.912466431E-1,9.806180819E0
4.667513125E0,-6.864724731E-1,9.777667236E0,-8.554710388E-1,9.838996480E0
4.677443125E0,-6.125262451E-1,9.824220428E0,-8.110134888E-1,9.876651169E0
4.687373125E0,-5.532495117E-1,9.872719574E0,-8.199948120E-1,9.922150387E0
4.697303125E0,-5.486091614E-1,9.885892181E0,-8.146060181E-1,9.934556819E0
4.707234125E0,-5.845344543E-1,9.882000275E0,-7.946974182E-1,9.931120478E0
4.717164125E0,-6.138734436E-1,9.865085449E0,-7.511380005E-1,9.912666635E0
4.727094125E0,-6.444099426E-1,9.834249573E0,-8.282276917E-1,9.890080381E0
4.737024125E0,-6.756948853E-1,9.776320038E0,-9.583071899E-1,9.846387649E0
4.746954125E0,-7.327262878E-1,9.698930969E0,-1.021625519E0,9.780075074E0
4.756884125E0,-8.204438782E-1,9.610015869E0,-9.410929871E-1,9.690778564E0
4.766815125E0,-8.217910767E-1,9.517657928E0,-8.174501038E-1,9.587980897E0
4.776745125E0,-7.557783508E-1,9.514215088E0,-7.698490906E-1,9.575184451E0
4.786675125E0,-6.515950012E-1,9.585017853E0,-8.059240723E-1,9.640884653E0
4.796605125E0,-6.050418091E-1,9.688003693E0,-9.165440369E-1,9.750053544E0
4.806535125E0,-6.005511475E-1,9.769883423E0,-9.666897583E-1,9.835942907E0
4.816466125E0,-5.438191223E-1,9.812993774E0,-9.669891357E-1,9.875507787E0
4.826396125E0,-4.984634399E-1,9.844727783E0,-9.322613525E-1,9.901325273E0
4.836326125E0,-4.824467468E-1,9.871971130E0,-9.174421692E-1,9.926241434E0
4.846256125E0,-5.391787720E-1,9.873018951E0,-9.253756714E-1,9.930938379E0
4.856186125E0,-5.950126648E-1,9.823022919E0,-9.183403015E-1,9.883783094E0
4.866116125E0,-5.944139099E-1,9.754315796E0,-9.524693298E-1,9.818716941E0
4.876047125E0,-5.984555054E-1,9.713151398E0,-9.969268799E-1,9.782500819E0
4.885977125E0,-6.538403320E-1,9.694739685E0,-9.978250122E-1,9.767862586E0
4.895907125E0,-7.182064819E-1,9.693691864E0,-9.678872681E-1,9.768330884E0
4.905837125E0,-7.533833313E-1,9.717791748E0,-9.313632202E-1,9.791348240E0
4.915767125E0,-7.123686218E-1,9.751771088E0,-8.933422852E-1,9.818480984E0
4.925698125E0,-6.439608765E-1,9.786199493E0,-9.069639587E-1,9.849211631E0
4.935628125E0,-6.176156616E-1,9.794282684E0,-9.105564880E-1,9.855888368E0
4.945558125E0,-5.843847656E-1,9.771979065E0,-9.190887451E-1,9.832487199E0
4.955488125E0,-5.628295898E-1,9.763746185E0,-9.237290955E-1,9.823481672E0
4.965418125E0,-5.342390442E-1,9.788893890E0,-9.090596008E-1,9.845518997E0
4.975348125E0,-5.195695496E-1,9.806557159E0,-9.436376953E-1,9.865544483E0
4.985279125E0,-5.343887329E-1,9.809700623E0,-9.431886292E-1,9.869417532E0
4.995209125E0,-6.039939880E-1,9.793085175E0,-9.018745422E-1,9.853055550E0
5.005139125E0,-6.078858948E-1,9.765542450E0,-9.107061768E-1,9.826735488E0
5.015069125E0,-6.120771790E-1,9.761650543E0,-9.075627136E-1,9.822837160E0
5.024999125E0,-5.980064392E-1,9.755513306E0,-9.253756714E-1,9.817533891E0
5.034930125E0,-5.978567505E-1,9.748927002E0,-9.762698364E-1,9.815911225E0
5.044860125E0,-6.015989685E-1,9.740993500E0,-9.560618591E-1,9.806269931E0
5.054790125E0,-5.794450378E-1,9.740245056E0,-9.407936096E-1,9.802715079E0
5.064720125E0,-5.839356995E-1,9.755812683E0,-9.657916260E-1,9.820876512E0
5.074650125E0,-5.559439087E-1,9.746681671E0,-9.919871521E-1,9.812793473E0
5.084580125E0,-5.740562439E-1,9.747579803E0,-9.756710815E-1,9.813092614E0
5.094511125E0,-5.896238708E-1,9.773176575E0,-9.626481628E-1,9.838156746E0
5.104441125E0,-6.099815369E-1,9.796677704E0,-9.460327148E-1,9.861133272E0
5.114371125E0,-6.156697083E-1,9.816436615E0,-9.701325989E-1,9.883452548E0
5.124301125E0,-5.906716919E-1,9.802515564E0,-1.026565247E0,9.873805783E0
5.134231125E0,-5.942642212E-1,9.775721283E0,-1.025517426E0,9.847312453E0
5.144161125E0,-6.358776855E-1,9.733509064E0,-9.788145447E-1,9.803245230E0
5.154092125E0,-6.509962463E-1,9.704768829E0,-9.351054382E-1,9.771425501E0
5.164022125E0,-6.744973755E-1,9.722881165E0,-9.225315857E-1,9.789812530E0
5.173952125E0,-6.650669861E-1,9.742340698E0,-9.406439209E-1,9.810215460E0
5.183882125E0,-6.599775696E-1,9.777517548E0,-9.500743103E-1,9.845712822E0
5.193812125E0,-6.512956238E-1,9.805808716E0,-9.407936096E-1,9.872343348E0
5.203743125E0,-6.125262451E-1,9.815538483E0,-9.497749329E-1,9.880387469E0
5.213673125E0,-5.831872559E-1,9.800569611E0,-9.990225220E-1,9.868602640E0
5.223603125E0,-5.493576050E-1,9.782606964E0,-9.855505371E-1,9.847461737E0
5.233533125E0,-5.306465149E-1,9.781409454E0,-9.315129089E-1,9.839983381E0
5.243463125E0,-5.367837524E-1,9.749974823E0,-9.096583557E-1,9.807019128E0
5.253393125E0,-5.776487732E-1,9.745633850E0,-9.318122864E-1,9.807106168E0
5.263324125E0,-6.068380737E-1,9.778265991E0,-9.032217407E-1,9.838625298E0
5.273254125E0,-5.912704468E-1,9.822573853E0,-9.023236084E-1,9.881636794E0
5.283184125E0,-5.351371765E-1,9.814191284E0,-9.714797974E-1,9.876664182E0
5.293114125E0,-5.171745300E-1,9.775571594E0,-1.004710693E0,9.840666292E0
5.303044125E0,-5.498066711E-1,9.752818909E0,-9.782157898E-1,9.817162022E0
5.312975125E0,-5.879772949E-1,9.738598480E0,-9.280700684E-1,9.800374060E0
5.322905125E0,-5.771997070E-1,9.752369843E0,-8.954379272E-1,9.810386645E0
5.332835125E0,-5.530998230E-1,9.792785797E0,-9.214837646E-1,9.851583904E0
5.342765125E0,-5.508544922E-1,9.885143738E0,-9.279203796E-1,9.943869650E0
5.352695125E0,-5.216651917E-1,1.002525238E1,-9.894424438E-1,1.008745836E1
5.362625125E0,-4.348457336E-1,1.017000137E1,-1.167272644E0,1.024600137E1
5.372556125E0,-3.263214111E-1,1.025547363E1,-1.410367126E0,1.035714056E1
5.382486125E0,-2.639012146E-1,1.018257523E1,-1.564845886E0,1.030549488E1
5.392416125E0,-3.092568970E-1,9.846673737E0,-1.580263824E0,9.977467477E0
5.402346125E0,-5.246589661E-1,9.385183411E0,-1.555116119E0,9.527608348E0
5.412276125E0,-1.041833496E0,9.002728729E0,-1.391506348E0,9.169014752E0
5.422207125E0,-1.477876740E0,8.793463898E0,-8.693920898E-1,8.959071915E0
5.432137125E0,-1.605561218E0,8.817863159E0,-3.981719971E-1,8.971682031E0
5.442067125E0,-1.515149231E0,8.996142426E0,-2.076182556E-1,9.125204714E0
5.451997125E0,-1.269360352E0,9.237141266E0,-4.535568237E-2,9.324060897E0
5.461927125E0,-9.702822876E-1,9.448352051E0,1.414558411E-1,9.499095428E0
5.471857125E0,-6.912625122E-1,9.644743652E0,2.508782959E-1,9.672738180E0
5.481788125E0,-4.007167053E-1,9.773475952E0,2.161505127E-1,9.784075179E0
5.491718125E0,-1.710942078E-1,9.774224396E0,2.574645996E-2,9.775755656E0
5.501648125E0,-3.966751099E-2,9.630074158E0,-2.408491516E-1,9.633167190E0
5.511578125E0,-1.901046753E-1,9.045090637E0,-8.943901062E-1,9.091190136E0
5.521508125E0,-3.601510620E-1,8.239166565E0,-1.149309998E0,8.326733330E0
5.531438125E0,-5.962101746E-1,7.180268555E0,-7.071295166E-1,7.239596345E0
5.541369125E0,-8.720864868E-1,5.837560730E0,-2.454895020E-2,5.902393817E0
5.551299125E0,-1.123862915E0,4.834047546E0,6.580316162E-1,5.006404812E0
5.561229125E0,-1.133293304E0,4.939428406E0,1.271605682E0,5.224872027E0
5.571159125E0,-9.645941162E-1,5.553900604E0,1.381327515E0,5.803819383E0
5.581089125E0,-3.944297791E-1,5.832471313E0,1.219214630E0,5.971581096E0
5.591020125E0,-1.166075134E-1,6.064189453E0,1.430275726E0,6.231667489E0
5.600950125E0,-3.387455750E-1,5.804778900E0,1.449136505E0,5.992512266E0
5.610880458E0,-6.119274902E-1,5.080584869E0,1.270408173E0,5.272640211E0
5.620810458E0,-2.444416809E-1,4.678670654E0,1.746717682E0,5.000073348E0
5.630740458E0,3.791615295E-1,5.263803864E0,3.534450073E0,6.351671583E0
5.640670458E0,6.744973755E-1,7.080276489E0,5.370082855E0,8.911961162E0
5.650601458E0,2.553689575E-1,9.984686737E0,6.806944885E0,1.208692191E1
5.660531458E0,-9.988728333E-1,1.187106400E1,8.173752594E0,1.444749593E1
5.670461458E0,-2.410287781E0,1.200653229E1,8.025710449E0,1.464166428E1
5.680391458E0,-3.259920959E0,1.077953384E1,5.777984619E0,1.265743026E1
5.690321458E0,-3.382366333E0,9.649533691E0,4.161346436E0,1.103950663E1
5.700252458E0,-2.523153076E0,9.171427917E0,4.240382080E0,1.041452023E1
5.710182458E0,-1.599124603E0,9.315578156E0,5.510490875E0,1.094087316E1
5.720112458E0,-3.104544067E-1,9.332343292E0,6.507118378E0,1.138119514E1
5.730042458E0,1.445843353E0,9.305249634E0,7.298971710E0,1.191440816E1
5.739972458E0,2.878963165E0,9.839937744E0,8.561895447E0,1.335735218E1
5.749902458E0,2.680176544E0,1.108684479E1,9.650132446E0,1.494076738E1
5.759833458E0,8.464897156E-1,1.156674683E1,1.011521530E1,1.538907917E1
5.769763458E0,-1.310225372E0,1.158934982E1,9.883347473E0,1.528758572E1
5.779693458E0,-3.471281433E0,1.275018585E1,9.663903809E0,1.637095205E1
5.789623458E0,-4.792434082E0,1.427551392E1,1.127709915E1,1.881304567E1
5.799553458E0,-5.367837524E0,1.605710907E1,1.195698532E1,2.072713027E1
5.809484458E0,-4.797224121E0,1.726554611E1,1.079644867E1,2.092070137E1
5.819414458E0,-3.728596344E0,1.775877045E1,1.013706985E1,2.078548878E1
5.829344458E0,-3.161425781E0,1.791309952E1,1.047910858E1,2.099250971E1
5.839274458E0,-3.545227661E0,1.802491699E1,1.120345230E1,2.151705406E1
5.849204458E0,-4.140689392E0,1.810050980E1,1.061592407E1,2.138858591E1
5.859134458E0,-4.369862823E0,1.810080917E1,9.301208038E0,2.081459740E1
5.869065458E0,-4.318519592E0,1.802327042E1,7.605534210E0,2.003327329E1
5.878995458E0,-4.230203247E0,1.814960770E1,4.733157349E0,1.922773147E1
5.888925458E0,-4.011208649E0,1.923125839E1,1.903591461E0,1.973714150E1
5.898855458E0,-3.977378998E0,2.203747284E1,8.393046570E-1,2.240924330E1
5.908785458E0,-4.329895935E0,2.538391388E1,7.111711121E-1,2.576037358E1
5.918715458E0,-5.767805786E0,3.009072601E1,-1.597328339E0,3.068013744E1
5.928646458E0,-5.808072052E0,3.101445511E1,-4.409530334E0,3.186022731E1
5.938576458E0,-1.213676147E0,2.480761230E1,-2.039359131E0,2.492086723E1
5.948506458E0,2.714455261E0,1.751417908E1,3.697012024E0,1.810476827E1
5.958436458E0,2.992427216E0,9.716594238E0,6.101911011E0,1.185749308E1
5.968366458E0,4.058061218E0,5.978118439E0,5.782175903E0,9.254151452E0
5.978297458E0,5.245242462E0,5.816903687E0,3.939058685E0,8.767275535E0
5.988227458E0,-1.783690796E0,7.822433167E0,5.818999329E0,9.911244457E0
5.998157458E0,-1.482621872E1,5.200635223E0,-2.379451904E0,1.589104023E1
6.008087458E0,-1.060379929E1,1.135987701E0,-1.510059814E0,1.077085456E1
6.018017458E0,-3.432212677E0,-7.833210754E-1,1.029094986E1,1.087645736E1
6.027947458E0,-3.986210632E-1,-2.933300171E0,8.711284790E0,9.200523427E0
6.037878458E0,6.039341125E0,-4.564158783E0,2.838098145E-1,7.575337262E0
6.047808458E0,1.254226822E1,-4.581822052E0,-5.996081085E0,1.463743740E1
6.057738458E0,1.527753021E1,-3.967050476E0,-9.513466644E0,1.842949990E1
6.067668458E0,1.563034653E1,-1.175056458E0,-1.042028091E1,1.882208130E1
6.077598458E0,8.827443237E0,2.064806213E0,-4.951403503E0,1.032974227E1
6.087529458E0,2.019600220E0,2.872975616E0,-5.508544922E-1,3.554745365E0
6.097459458E0,-2.894530792E0,3.485052795E0,5.291496277E-1,4.561129336E0
6.107389458E0,-8.295898590E0,3.632047119E0,2.330653381E-1,9.059140089E0
6.117319458E0,-1.267264709E1,2.794838104E0,-2.502795410E-1,1.297958953E1
6.127249458E0,-1.485705460E1,1.594035187E0,4.819976807E-1,1.495009502E1
6.137179458E0,-1.395952103E1,2.089654541E-1,2.179617462E0,1.413020262E1
6.147110458E0,-1.012808853E1,-7.288343811E-1,2.084864502E0,1.036610037E1
6.157040458E0,-5.779182129E0,-1.212478638E0,5.179229736E-1,5.927671949E0
6.166970458E0,-1.539398804E0,-1.523382111E0,-1.552272034E0,2.664580680E0
6.176900458E0,2.220632172E0,-1.088536377E0,-3.617527313E0,4.382079706E0
6.186830458E0,6.572532349E0,6.271957397E-2,-4.578828278E0,8.010479612E0
6.196761458E0,1.026340714E1,3.257226562E-1,-3.172652435E0,1.074752738E1
6.206691458E0,9.648485870E0,2.728825378E-1,-1.144969025E0,9.720015357E0
6.216621458E0,4.749473419E0,-5.029541016E-2,1.658551025E-1,4.752634564E0
6.226551458E0,8.334667969E-1,1.179547119E-1,9.096583557E-1,1.239378288E0
6.236481458E0,-1.697619781E0,2.865042114E-1,9.134005737E-1,1.948922316E0
6.246411458E0,-3.406765594E0,7.200027466E-2,2.951861572E-1,3.420288105E0
6.256342458E0,-3.947890320E0,-1.386117554E-1,3.143463135E-2,3.950447991E0
6.266272458E0,-3.605402527E0,-1.127156067E-1,-2.038760376E-1,3.612920927E0
6.276202458E0,-2.935994568E0,9.205856323E-2,-4.031117249E-1,2.964968456E0
6.286132458E0,-2.114802246E0,3.941304016E-1,-9.280700684E-3,2.151235330E0
6.296062458E0,-1.064286804E0,5.337899780E-1,4.875361633E-1,1.286596150E0
6.305992458E0,9.340576172E-2,6.355783081E-1,7.385641479E-1,9.788572024E-1
6.315923458E0,1.075513458E0,7.027885437E-1,7.470964050E-1,1.486201189E0
6.325853458E0,1.870510254E0,6.762936401E-1,7.653584290E-1,2.131186342E0
6.335783458E0,2.273621979E0,5.599855042E-1,7.583230591E-1,2.461299358E0
6.345713458E0,2.175426178E0,4.010160828E-1,4.779560852E-1,2.263125046E0
6.355643458E0,1.738185425E0,3.092568970E-1,1.336720276E-1,1.770535685E0
6.365574458E0,1.053808594E0,2.627037048E-1,-1.577719116E-1,1.097459687E0
6.375504458E0,2.742297363E-1,2.176473999E-1,-3.568579102E-1,4.999199006E-1
6.385434458E0,-4.616400146E-1,3.742218018E-1,-3.183879089E-1,6.741841889E-1
6.395364458E0,-1.011147308E0,7.535330200E-1,-1.317260742E-1,1.267904827E0
6.405294458E0,-1.539249115E0,2.211201782E0,-5.001100159E-1,2.740221011E0
6.415224458E0,-2.523003387E0,7.101382599E0,-1.102607117E0,7.616490226E0
6.425155458E0,-5.240901489E0,1.526435760E1,1.544637909E0,1.621275941E1
6.435085458E0,-9.127868500E0,2.898707108E1,8.663384399E0,3.160098894E1
6.445015458E0,-1.416489395E1,4.531302109E1,5.067561951E0,4.774509697E1
6.454945458E0,-2.201367233E1,5.645225693E1,-7.456743622E0,6.104966918E1
6.464875458E0,-1.735999969E1,4.392705322E1,4.394860840E0,4.743701504E1
6.474805458E0,-6.147715759E-1,2.583028564E1,1.853715179E1,3.179949052E1
6.484736458E0,7.502698059E0,2.751114029E1,-2.267185364E0,2.860582891E1
6.494666458E0,1.076800781E1,3.319661728E1,-5.537584534E0,3.533596233E1
6.504596458E0,1.045470932E1,3.383713531E1,1.056787399E1,3.695852586E1
6.514526458E0,2.820434875E0,2.303904007E1,4.252207489E0,2.359731952E1
6.524456458E0,4.757107544E-1,1.346614700E1,-2.238894196E0,1.365928487E1
6.534387458E0,-7.435038757E-1,7.915689240E0,4.622387695E-1,7.963956230E0
6.544317458E0,-2.863545227E0,5.193899231E0,3.993994446E0,7.150417619E0
6.554247458E0,-6.462810516E0,6.939419403E0,6.827751617E0,1.168510392E1
6.564177458E0,-8.232879639E0,1.106064926E1,6.501130829E0,1.524411268E1
6.574107458E0,-6.847660217E0,1.267728745E1,3.782035217E0,1.489657202E1
6.584037458E0,-4.538861389E0,1.265633102E1,1.891167297E0,1.357794136E1
6.593968458E0,-2.751727753E0,1.248553619E1,1.678309937E0,1.289485727E1
6.603898083E0,-1.234333191E0,1.192210785E1,1.486109619E0,1.207761383E1
6.613828083E0,-6.990463257E-2,1.077758789E1,6.310876465E-1,1.079627524E1
6.623758083E0,3.100053406E-1,9.394464111E0,-1.287322998E-1,9.400459098E0
6.633688083E0,2.695893860E-1,8.215216370E0,-3.589535522E-1,8.227472643E0
6.643619083E0,-3.981719971E-2,7.068750458E0,-2.219883728E-1,7.072347367E0
6.653549083E0,-4.435276794E-1,6.010002136E0,2.161505127E-1,6.030220852E0
6.663479083E0,-9.851014709E-1,5.155578918E0,9.036708069E-1,5.326071706E0
6.673409083E0,-1.559008026E0,4.500690765E0,1.703307953E0,5.058456422E0
6.683339083E0,-2.066602478E0,4.200415192E0,2.513572998E0,5.313415361E0
6.693269083E0,-2.470612335E0,4.558620300E0,3.047961731E0,6.014566906E0
6.703200083E0,-2.850073242E0,5.305417328E0,3.147055664E0,6.795169598E0
6.713130083E0,-3.019969940E0,6.219266968E0,3.029699707E0,7.548415752E0
6.723060083E0,-2.893033905E0,7.258406067E0,2.859653320E0,8.320560133E0
6.732990083E0,-2.639910278E0,8.347990265E0,2.563419342E0,9.123003149E0
6.742920083E0,-2.208806763E0,9.576036530E0,2.238594818E0,1.007921672E1
6.752851083E0,-2.223925323E0,1.081620758E1,1.904938660E0,1.120557815E1
6.762781083E0,-2.176623688E0,1.138113281E1,1.762135620E0,1.172062271E1
6.772711083E0,-2.234104156E0,1.139595200E1,1.708996124E0,1.173795600E1
6.782641083E0,-2.454745331E0,1.109373047E1,1.896556091E0,1.151926887E1
6.792571083E0,-2.749482422E0,1.045291306E1,2.227068787E0,1.103552809E1
6.802501083E0,-2.829865265E0,9.755962372E0,2.312391357E0,1.041796972E1
6.812432083E0,-2.781815186E0,9.274563446E0,2.023641815E0,9.891973971E0
6.822362083E0,-2.523602142E0,9.108408966E0,1.590143280E0,9.584374644E0
6.832292083E0,-2.025138702E0,9.166338501E0,1.057850189E0,9.446798151E0
6.842222083E0,-1.487756195E0,9.300758972E0,5.872288513E-1,9.437286351E0
6.852152083E0,-9.858499146E-1,9.471553802E0,2.040257263E-1,9.524907243E0
6.862082083E0,-5.384303284E-1,9.602082367E0,-2.859054565E-2,9.617209076E0
6.872013083E0,-2.176473999E-1,9.667047272E0,-1.249900818E-1,9.670304849E0
6.881943083E0,-1.974394226E-1,9.773326263E0,-1.725910950E-1,9.776843880E0
6.891873083E0,-2.983296204E-1,9.777517548E0,-1.131646729E-1,9.782722331E0
6.901803083E0,-4.571493530E-1,9.685458984E0,-1.945953369E-3,9.696241801E0
6.911733083E0,-8.828640747E-1,9.580377502E0,1.619631958E-1,9.622334132E0
6.921664083E0,-1.318308563E0,9.530830536E0,3.579057312E-1,9.628227494E0
6.931594083E0,-1.628762970E0,9.523346100E0,4.592449951E-1,9.672533056E0
6.941524083E0,-1.732946320E0,9.489815826E0,5.149291992E-1,9.660479256E0
6.951454083E0,-1.786085815E0,9.508077850E0,5.797444153E-1,9.691736198E0
6.961384083E0,-1.786834259E0,9.546248474E0,4.861889648E-1,9.724197463E0
6.971314083E0,-1.692530365E0,9.543404388E0,3.754193115E-1,9.699596178E0
6.981245083E0,-1.599274292E0,9.585616608E0,3.920347595E-1,9.726017441E0
6.991175083E0,-1.546583862E0,9.655221863E0,4.240681458E-1,9.787495321E0
7.001105083E0,-1.494043121E0,9.725725250E0,4.002676392E-1,9.847949567E0
7.011035083E0,-1.452130280E0,9.842931519E0,2.927911377E-1,9.953778673E0
7.020965083E0,-1.357377319E0,9.945019226E0,1.029858398E-1,1.003775307E1
7.030896083E0,-1.240470428E0,9.950258331E0,-1.251397705E-1,1.002806401E1
7.040826083E0,-1.093027039E0,1.002734802E1,-1.814227295E-1,1.008837602E1
7.050756083E0,-9.618997192E-1,1.008048752E1,-1.182540894E-1,1.012696715E1
7.060686083E0,-9.249266052E-1,1.008093658E1,-4.221221924E-2,1.012336671E1
7.070616083E0,-8.283773804E-1,9.954599304E0,3.113525391E-2,9.989055300E0
7.080546083E0,-7.595205688E-1,9.823471985E0,6.616241455E-2,9.853012270E0
7.090477083E0,-7.405101013E-1,9.718540192E0,7.170089722E-2,9.746974899E0
7.100407083E0,-6.352789307E-1,9.598190460E0,2.245330811E-2,9.619217410E0
7.110337083E0,-4.903802490E-1,9.449250183E0,-7.604187012E-2,9.462271618E0
7.120267083E0,-4.204756165E-1,9.321865082E0,-2.543211365E-1,9.334808385E0
7.130197083E0,-3.724255371E-1,9.337582397E0,-5.334906006E-1,9.360222114E0
7.140127083E0,-3.770658875E-1,9.488917694E0,-7.417076111E-1,9.525327704E0
7.150058083E0,-4.348457336E-1,9.633367310E0,-8.800199890E-1,9.683247994E0
7.159988083E0,-4.796026611E-1,9.826465759E0,-1.013692017E0,9.890248709E0
7.169918083E0,-5.939648438E-1,9.980046387E0,-1.118773499E0,1.006010806E1
7.179848083E0,-7.451504517E-1,9.951306152E0,-1.134490814E0,1.004344626E1
7.189778083E0,-8.059240723E-1,9.955796814E0,-1.104403381E0,1.004923433E1
7.199709083E0,-8.577163696E-1,9.832602997E0,-1.032103729E0,9.923759226E0
7.209639083E0,-9.596543884E-1,9.679920502E0,-9.707313538E-1,9.775690095E0
7.219569083E0,-9.392967224E-1,9.636810150E0,-8.951385498E-1,9.723767851E0
7.229499083E0,-1.012195129E0,9.455088043E0,-8.159532166E-1,9.544056189E0
7.239429083E0,-8.411009216E-1,9.475894775E0,-8.620573425E-1,9.552129366E0
7.249359083E0,-6.670129395E-1,9.509724426E0,-1.037043457E0,9.589328655E0
7.259290083E0,-5.535488892E-1,9.514364777E0,-1.275796967E0,9.615467299E0
7.269220083E0,-4.552033997E-1,9.529633026E0,-1.488953705E0,9.655987722E0
7.279150083E0,-5.195695496E-1,9.483678589E0,-1.570983124E0,9.626946560E0
7.289080083E0,-7.222480774E-1,9.393266602E0,-1.622625732E0,9.559707841E0
7.299010083E0,-7.891589355E-1,9.509574738E0,-1.635049896E0,9.681331090E0
7.308941083E0,-9.782157898E-1,9.512867889E0,-1.518143005E0,9.682784713E0
7.318871083E0,-1.133592682E0,9.576934662E0,-1.393601990E0,9.743964101E0
7.328801083E0,-1.269210663E0,9.630972290E0,-1.332379303E0,9.805190338E0
7.338731083E0,-1.383722534E0,9.677824860E0,-1.363963623E0,9.870936067E0
7.348661083E0,-1.441502380E0,9.715696106E0,-1.438358917E0,9.926809977E0
7.358591083E0,-1.483564911E0,9.760752411E0,-1.535207520E0,9.991502119E0
7.368522083E0,-1.459914093E0,9.777966614E0,-1.641187134E0,1.002165034E1
7.378452083E0,-1.401834869E0,9.819580078E0,-1.780397644E0,1.007765398E1
7.388382083E0,-1.276695099E0,9.873917084E0,-1.842368774E0,1.012514255E1
7.398312083E0,-1.129401398E0,9.930649109E0,-1.842069397E0,1.016299950E1
7.408242083E0,-9.804611206E-1,9.877958679E0,-1.831890564E0,1.009411684E1
7.418172083E0,-8.174501038E-1,9.782756653E0,-1.787732391E0,9.978303438E0
7.428103083E0,-6.909631348E-1,9.695488129E0,-1.696721649E0,9.867055511E0
7.438033083E0,-6.174659729E-1,9.608369293E0,-1.584754486E0,9.757739056E0
7.447963083E0,-6.207591248E-1,9.564360809E0,-1.535357208E0,9.706681273E0
7.457893083E0,-7.098239136E-1,9.572743378E0,-1.479822693E0,9.712421993E0
7.467823083E0,-8.939410400E-1,9.617200928E0,-1.398392029E0,9.759363941E0
7.477754083E0,-1.071172485E0,9.681866455E0,-1.372944946E0,9.837221476E0
7.487684083E0,-1.185983734E0,9.771230621E0,-1.361718292E0,9.936688683E0
7.497614083E0,-1.255588989E0,9.870025177E0,-1.299298096E0,1.003404586E1
7.507544083E0,-1.337618408E0,9.941726074E0,-1.211730194E0,1.010422834E1
7.517474083E0,-1.380429382E0,9.954000549E0,-1.178050232E0,1.011807860E1
7.527404083E0,-1.377585297E0,9.924212494E0,-1.167871399E0,1.008720271E1
7.537335083E0,-1.332828369E0,9.884994049E0,-1.207688599E0,1.004729071E1
7.547265083E0,-1.215472412E0,9.831255798E0,-1.331181793E0,9.995149260E0
7.557195083E0,-1.059796143E0,9.801318054E0,-1.455423431E0,9.965302847E0
7.567125083E0,-9.401948547E-1,9.823771362E0,-1.558858337E0,9.991020441E0
7.577055083E0,-8.741821289E-1,9.813891907E0,-1.608554993E0,9.983191770E0
7.586985083E0,-8.406518555E-1,9.752968597E0,-1.554667053E0,9.911815255E0
7.596916083E0,-8.063731384E-1,9.684261475E0,-1.496288452E0,9.832295616E0
7.606846583E0,-7.538323975E-1,9.651629333E0,-1.465302887E0,9.791288200E0
7.616776583E0,-6.885681152E-1,9.671987000E0,-1.479373627E0,9.808669884E0
7.626706583E0,-6.248007202E-1,9.647737427E0,-1.553020477E0,9.791888786E0
7.636636583E0,-5.774990845E-1,9.585167542E0,-1.624272308E0,9.738952845E0
7.646567583E0,-5.854325867E-1,9.567204895E0,-1.623224487E0,9.721573872E0
7.656497583E0,-6.732998657E-1,9.576335907E0,-1.539398804E0,9.722617487E0
7.666427583E0,-7.822732544E-1,9.572144623E0,-1.500479736E0,9.720562924E0
7.676357583E0,-8.898994446E-1,9.517208862E0,-1.493893433E0,9.674755973E0
7.686287583E0,-9.280700684E-1,9.467512207E0,-1.462458801E0,9.624649977E0
7.696217583E0,-9.315129089E-1,9.488468628E0,-1.437460785E0,9.641838347E0
7.706148583E0,-9.063652039E-1,9.542206879E0,-1.470242615E0,9.697258548E0
7.716078583E0,-9.598040771E-1,9.597591705E0,-1.524878998E0,9.765257107E0
7.726008583E0,-1.015188904E0,9.645492096E0,-1.492097168E0,9.812873190E0
7.735938583E0,-1.030157776E0,9.654772797E0,-1.406475220E0,9.810914093E0
7.745868583E0,-1.018781433E0,9.704319763E0,-1.346150665E0,9.850068999E0
7.755799583E0,-9.279203796E-1,9.719737701E0,-1.323547668E0,9.853228691E0
7.765729583E0,-8.440946960E-1,9.751172333E0,-1.325343933E0,9.876962805E0
7.775659583E0,-8.063731384E-1,9.826016693E0,-1.297501831E0,9.944061177E0
7.785589583E0,-7.927514648E-1,9.889335022E0,-1.272204437E0,1.000229505E1
7.795519583E0,-8.077203369E-1,9.890382843E0,-1.298699341E0,1.000793210E1
7.805449583E0,-9.030720520E-1,9.881850586E0,-1.312620392E0,1.000946964E1
7.815380583E0,-1.023122406E0,9.887389069E0,-1.306034088E0,1.002561555E1
7.825310583E0,-1.076411591E0,9.849068756E0,-1.310075684E0,9.993953951E0
7.835240583E0,-1.077758789E0,9.735754395E0,-1.321601715E0,9.883982433E0
7.845170583E0,-1.072968750E0,9.631271667E0,-1.302142181E0,9.777946110E0
7.855100583E0,-9.979747009E-1,9.620943146E0,-1.262175293E0,9.754567494E0
7.865031583E0,-9.002279663E-1,9.704918518E0,-1.222058716E0,9.822895772E0
7.874961583E0,-8.252339172E-1,9.774523773E0,-1.227896576E0,9.885851304E0
7.884891583E0,-7.732919312E-1,9.772577820E0,-1.265169067E0,9.884427673E0
7.894821583E0,-7.731422424E-1,9.723030853E0,-1.276246033E0,9.836863415E0
7.904751583E0,-7.717950439E-1,9.608818359E0,-1.260828094E0,9.721869436E0
7.914681583E0,-7.602690125E-1,9.502090302E0,-1.259181519E0,9.615262200E0
7.924612583E0,-7.640112305E-1,9.440867615E0,-1.276695099E0,9.557386926E0
7.934542583E0,-7.607180786E-1,9.466015320E0,-1.275497589E0,9.581807352E0
7.944472583E0,-7.771838379E-1,9.594298553E0,-1.238075409E0,9.705019844E0
7.954402583E0,-7.987390137E-1,9.738748169E0,-1.181642761E0,9.842635802E0
7.964332583E0,-7.939489746E-1,9.785900116E0,-1.140029297E0,9.884020581E0
7.974262583E0,-7.932005310E-1,9.780810699E0,-1.165326691E0,9.881872865E0
7.984193583E0,-8.217910767E-1,9.781110077E0,-1.216969299E0,9.890726424E0
7.994123583E0,-8.919950867E-1,9.790540466E0,-1.255738678E0,9.910964508E0
8.004053583E0,-1.034049683E0,9.814490662E0,-1.268462219E0,9.949999100E0
8.013983583E0,-1.144370270E0,9.856104126E0,-1.295555878E0,1.000653971E1
8.023913583E0,-1.187779999E0,9.899064789E0,-1.286275177E0,1.005270157E1
8.033844583E0,-1.163530426E0,9.895621948E0,-1.275946655E0,1.004515688E1
8.043774583E0,-1.115031281E0,9.818981323E0,-1.248403931E0,9.960632578E0
8.053704583E0,-1.097218323E0,9.692644043E0,-1.231489105E0,9.831978540E0
8.063634583E0,-1.081051941E0,9.571695557E0,-1.246457977E0,9.712861917E0
8.073564583E0,-1.079854431E0,9.484427032E0,-1.271306305E0,9.629987614E0
8.083494583E0,-1.041384430E0,9.449100494E0,-1.244062958E0,9.587370564E0
8.093425583E0,-9.592053223E-1,9.433832245E0,-1.230740662E0,9.562007543E0
8.103355583E0,-8.497828674E-1,9.496102753E0,-1.249002686E0,9.615513825E0
8.113285583E0,-8.011340332E-1,9.593999176E0,-1.238823853E0,9.706766736E0
8.123215583E0,-8.180488586E-1,9.706265717E0,-1.175056458E0,9.811297354E0
8.133145583E0,-8.167016602E-1,9.748627625E0,-1.130598907E0,9.847892975E0
8.143076583E0,-7.943980408E-1,9.746531982E0,-1.096320190E0,9.840115441E0
8.153006583E0,-7.578739929E-1,9.738897858E0,-1.137334900E0,9.834329420E0
8.162936583E0,-7.767347717E-1,9.719138947E0,-1.203048248E0,9.824067582E0
8.172866583E0,-8.698411560E-1,9.717342682E0,-1.192570038E0,9.828814564E0
8.182796583E0,-9.616003418E-1,9.696086884E0,-1.143771515E0,9.810554997E0
8.192726583E0,-1.001417542E0,9.665101318E0,-1.113983459E0,9.780489749E0
8.202657583E0,-1.010847931E0,9.665400696E0,-1.084794159E0,9.778474447E0
8.212587583E0,-1.022972717E0,9.668244781E0,-1.129850464E0,9.787644886E0
8.222517583E0,-1.056652679E0,9.694739685E0,-1.153650970E0,9.820152901E0
8.232447583E0,-1.105151825E0,9.739795990E0,-1.155447235E0,9.870159310E0
8.242377583E0,-1.133742371E0,9.792486420E0,-1.170715485E0,9.927171641E0
8.252307583E0,-1.166673889E0,9.830956421E0,-1.213825836E0,9.974076663E0
8.262238583E0,-1.184037781E0,9.782157898E0,-1.237177277E0,9.930919707E0
8.272168583E0,-1.171314240E0,9.719288635E0,-1.229842529E0,9.866562789E0
8.282098583E0,-1.185684357E0,9.704619141E0,-1.239572296E0,9.855050458E0
8.292028583E0,-1.194216614E0,9.698481903E0,-1.239123230E0,9.849981265E0
8.301958583E0,-1.175804901E0,9.718540192E0,-1.223555603E0,9.865577983E0
8.311889583E0,-1.143322449E0,9.746082916E0,-1.172661438E0,9.882735111E0
8.321819583E0,-1.113235016E0,9.759704590E0,-1.155896301E0,9.890764487E0
8.331749583E0,-1.054856415E0,9.746382294E0,-1.168619843E0,9.872707947E0
8.341679583E0,-9.836045837E-1,9.735604706E0,-1.185684357E0,9.856740047E0
8.351609583E0,-9.291178894E-1,9.708061981E0,-1.197509766E0,9.825668279E0
8.361539583E0,-9.024732971E-1,9.688003693E0,-1.230291595E0,9.807420202E0
8.371470583E0,-8.702902222E-1,9.675579529E0,-1.232087860E0,9.792460609E0
8.381400583E0,-8.614585876E-1,9.712253265E0,-1.183738403E0,9.821975921E0
8.391330583E0,-8.655001831E-1,9.736053772E0,-1.152154083E0,9.842118301E0
8.401260583E0,-8.759783936E-1,9.730814667E0,-1.143621826E0,9.836867545E0
8.411190583E0,-8.888516235E-1,9.719288635E0,-1.155896301E0,9.828058050E0
8.421121583E0,-8.698411560E-1,9.709708557E0,-1.178349609E0,9.819550484E0
8.431051583E0,-8.649014282E-1,9.679321747E0,-1.203946381E0,9.792181108E0
8.440981583E0,-9.026229858E-1,9.646539917E0,-1.187031555E0,9.761122094E0
8.450911583E0,-9.472302246E-1,9.641151123E0,-1.187330933E0,9.760061210E0
8.460841583E0,-9.702822876E-1,9.662107544E0,-1.193168793E0,9.783732502E0
8.470771583E0,-9.298663330E-1,9.671687622E0,-1.178349609E0,9.787476726E0
8.480702583E0,-8.821156311E-1,9.709558868E0,-1.132095795E0,9.815054880E0
8.490632583E0,-8.755293274E-1,9.735904083E0,-1.067130890E0,9.833267425E0
8.500562583E0,-9.051676941E-1,9.740394745E0,-1.021475830E0,9.835549360E0
8.510492583E0,-9.268725586E-1,9.718240814E0,-9.943821716E-1,9.812853467E0
8.520422583E0,-8.985813904E-1,9.717941437E0,-9.836045837E-1,9.808838477E0
8.530352583E0,-8.717871094E-1,9.754166107E0,-1.004561005E0,9.844435587E0
8.540283583E0,-8.448431396E-1,9.764045563E0,-1.025667114E0,9.854051893E0
8.550213583E0,-8.602610779E-1,9.739646301E0,-1.050365753E0,9.833820591E0
8.560143583E0,-9.135502625E-1,9.715696106E0,-1.079555054E0,9.818083521E0
8.570073583E0,-9.939331055E-1,9.690698090E0,-1.084195404E0,9.801684149E0
8.580003583E0,-1.069525909E0,9.696835327E0,-1.078207855E0,9.815041172E0
8.589934583E0,-1.102756805E0,9.686955872E0,-1.065035248E0,9.807521945E0
8.599864583E0,-1.082399139E0,9.676178284E0,-1.029409332E0,9.790796579E0
8.609793958E0,-1.061742096E0,9.717492371E0,-1.005159760E0,9.826866255E0
8.619723958E0,-1.061442719E0,9.751920776E0,-1.003213806E0,9.860682401E0
8.629653958E0,-1.055305481E0,9.755812683E0,-1.015937347E0,9.865175085E0
8.639584958E0,-1.037193146E0,9.726773071E0,-1.027014313E0,9.835682101E0
8.649514958E0,-9.897418213E-1,9.686506805E0,-1.028511200E0,9.791110164E0
8.659444958E0,-9.388476562E-1,9.665849762E0,-1.029259644E0,9.765728952E0
8.669374958E0,-9.271719360E-1,9.653126221E0,-1.051712952E0,9.754414066E0
8.679304958E0,-9.433383179E-1,9.619895325E0,-1.074016571E0,9.725522343E0
8.689234958E0,-9.632469177E-1,9.603279877E0,-1.060993652E0,9.709610525E0
8.699165958E0,-9.951306152E-1,9.646240540E0,-1.005309448E0,9.749404524E0
8.709095958E0,-1.033600616E0,9.735305328E0,-9.590556335E-1,9.836884048E0
8.719025958E0,-1.070573730E0,9.782606964E0,-9.321116638E-1,9.885057374E0
8.728955958E0,-1.060245209E0,9.765841827E0,-9.301657104E-1,9.867167514E0
8.738885958E0,-9.617500305E-1,9.683513031E0,-9.861492920E-1,9.780995766E0
8.748815958E0,-9.041198730E-1,9.653126221E0,-1.037642212E0,9.750742533E0
8.758746958E0,-9.145980835E-1,9.691296844E0,-1.066831512E0,9.792642833E0
8.768676958E0,-9.801617432E-1,9.770182800E0,-1.110690308E0,9.881843044E0
8.778606958E0,-1.021176453E0,9.843979340E0,-1.153052216E0,9.963747287E0
8.788536958E0,-1.042881317E0,9.870474243E0,-1.133293304E0,9.989905752E0
8.798466958E0,-1.049168243E0,9.835896149E0,-1.099613342E0,9.952625611E0
8.808397958E0,-1.018631744E0,9.735305328E0,-1.093625793E0,9.849355199E0
8.818327958E0,-1.019230499E0,9.613309021E0,-1.090482330E0,9.728499003E0
8.828257958E0,-1.058598633E0,9.531129913E0,-1.114432526E0,9.654275133E0
8.838187958E0,-1.109941864E0,9.552834778E0,-1.140178986E0,9.684453075E0
8.848117958E0,-1.163081360E0,9.652228088E0,-1.140628052E0,9.788733201E0
8.858047958E0,-1.200952606E0,9.730814667E0,-1.153950348E0,9.872316985E0
8.867978958E0,-1.250649261E0,9.769883423E0,-1.176104279E0,9.919574938E0
8.877908958E0,-1.266965332E0,9.790241089E0,-1.205892334E0,9.945260080E0
8.887838958E0,-1.247954865E0,9.761949921E0,-1.230590973E0,9.918034671E0
8.897768958E0,-1.234632568E0,9.758357391E0,-1.222657471E0,9.911848861E0
8.907698958E0,-1.251697083E0,9.764794006E0,-1.173110504E0,9.914339909E0
8.917629958E0,-1.237476654E0,9.724378052E0,-1.142574005E0,9.869161683E0
8.927559958E0,-1.191522217E0,9.688452759E0,-1.089284821E0,9.822035607E0
8.937489958E0,-1.126707001E0,9.680668945E0,-1.087338867E0,9.806483861E0
8.947419958E0,-1.017284546E0,9.671537933E0,-1.121916962E0,9.789392806E0
8.957349958E0,-9.660910034E-1,9.644743652E0,-1.162332916E0,9.762449987E0
8.967279958E0,-9.716294861E-1,9.621392212E0,-1.183738403E0,9.742509356E0
8.977210958E0,-9.683363342E-1,9.609267426E0,-1.231788483E0,9.736169605E0
8.987140958E0,-9.792636108E-1,9.621841278E0,-1.268162842E0,9.754333590E0
8.997070958E0,-1.003513184E0,9.618697815E0,-1.288819885E0,9.756405233E0
9.007000958E0,-1.064735870E0,9.619296570E0,-1.258133698E0,9.759478950E0
9.016930958E0,-1.160087585E0,9.643246765E0,-1.187929688E0,9.785151420E0
9.026860958E0,-1.221310272E0,9.686955872E0,-1.154399414E0,9.831650464E0
9.036791958E0,-1.229992218E0,9.735005951E0,-1.147663422E0,9.879289096E0
9.046721958E0,-1.191671906E0,9.748777313E0,-1.170416107E0,9.890834894E0
9.056651958E0,-1.151854706E0,9.742191010E0,-1.188678131E0,9.881801993E0
9.066581958E0,-1.128503265E0,9.768536224E0,-1.235081635E0,9.910764160E0
9.076511958E0,-1.159638519E0,9.776469727E0,-1.253044281E0,9.924426521E0
9.086442958E0,-1.178050232E0,9.739646301E0,-1.255738678E0,9.890671972E0
9.096372958E0,-1.142574005E0,9.709259491E0,-1.243314514E0,9.855000061E0
9.106302958E0,-1.077908478E0,9.704319763E0,-1.207688599E0,9.838405384E0
9.116232958E0,-1.001417542E0,9.694739685E0,-1.237626343E0,9.824588216E0
9.126162958E0,-9.713301086E-1,9.706565094E0,-1.263821869E0,9.836571243E0
9.136092958E0,-9.666897583E-1,9.704319763E0,-1.266815643E0,9.834283554E0
9.146023958E0,-9.599537659E-1,9.722282410E0,-1.230291595E0,9.846720464E0
9.155953958E0,-1.001716919E0,9.731413422E0,-1.199156342E0,9.856054987E0
9.165883958E0,-1.020278320E0,9.693841553E0,-1.169368286E0,9.817278344E0
9.175813958E0,-1.009800110E0,9.656868439E0,-1.148112488E0,9.777165570E0
9.185743958E0,-9.836045837E-1,9.606872406E0,-1.177301788E0,9.728592648E0
9.195674958E0,-9.650431824E-1,9.568552094E0,-1.243164825E0,9.697110719E0
9.205604958E0,-9.824070740E-1,9.581575012E0,-1.266366577E0,9.714699567E0
9.215534958E0,-1.029259644E0,9.657317505E0,-1.231040039E0,9.789719934E0
9.225464958E0,-1.045875092E0,9.723779297E0,-1.230590973E0,9.856981925E0
9.235394958E0,-1.046773224E0,9.769883423E0,-1.251248016E0,9.905149059E0
9.245324958E0,-1.033301239E0,9.797126770E0,-1.254840546E0,9.931063850E0
9.255255958E0,-1.030756531E0,9.823322296E0,-1.238674164E0,9.954618709E0
9.265185958E0,-1.040336609E0,9.852661285E0,-1.214873657E0,9.981640780E0
9.275115958E0,-1.078956299E0,9.834249573E0,-1.252295837E0,9.972204181E0
9.285045958E0,-1.108145599E0,9.790989532E0,-1.248553619E0,9.932288197E0
9.294975958E0,-1.131047974E0,9.741442566E0,-1.170865173E0,9.876532693E0
9.304906958E0,-1.111887817E0,9.688153381E0,-1.110989685E0,9.814831050E0
9.314836958E0,-1.082399139E0,9.649084625E0,-1.091380463E0,9.770748862E0
9.324766958E0,-1.048270111E0,9.643695831E0,-1.105301514E0,9.763269480E0
9.334696958E0,-1.012344818E0,9.630972290E0,-1.146914978E0,9.751711811E0
9.344626958E0,-9.919871521E-1,9.658814392E0,-1.148561554E0,9.777316995E0
9.354556958E0,-9.734257507E-1,9.712852020E0,-1.119222565E0,9.825462392E0
9.364487958E0,-9.517208862E-1,9.756561127E0,-1.123862915E0,9.867082928E0
9.374417958E0,-9.457333374E-1,9.756860504E0,-1.118623810E0,9.866207867E0
9.384347958E0,-9.714797974E-1,9.745484161E0,-1.093925171E0,9.854689585E0
9.394277958E0,-1.021026764E0,9.758507080E0,-1.063388672E0,9.869232572E0
9.404207958E0,-1.070124664E0,9.779463501E0,-1.106948090E0,9.899919557E0
9.414138958E0,-1.081650696E0,9.768685913E0,-1.152004395E0,9.895671115E0
9.424068958E0,-1.084345093E0,9.735155640E0,-1.152902527E0,9.862973377E0
9.433998958E0,-1.077309723E0,9.703122253E0,-1.154100037E0,9.830723503E0
9.443928958E0,-1.088237000E0,9.682764587E0,-1.161584473E0,9.812719720E0
9.453858958E0,-1.090781708E0,9.649234314E0,-1.187779999E0,9.783064392E0
9.463788958E0,-1.091530151E0,9.628577271E0,-1.161434784E0,9.759603941E0
9.473719958E0,-1.089584198E0,9.681567078E0,-1.108594666E0,9.805555412E0
9.483649958E0,-1.021326141E0,9.761500854E0,-1.078357544E0,9.873847326E0
9.493579958E0,-9.157955933E-1,9.847422180E0,-1.059646454E0,9.946519782E0
9.503509958E0,-8.102650452E-1,9.868827667E0,-1.043330383E0,9.956848259E0
9.513439958E0,-7.126679993E-1,9.812095642E0,-1.039887543E0,9.892748995E0
9.523369958E0,-6.724017334E-1,9.736502838E0,-9.960287476E-1,9.810386581E0
9.533300958E0,-7.197033691E-1,9.680818634E0,-9.216334534E-1,9.751186112E0
9.543230958E0,-7.807763672E-1,9.616751862E0,-8.560697937E-1,9.686298756E0
9.553160958E0,-8.231382751E-1,9.554930420E0,-8.096662903E-1,9.624438241E0
9.563090958E0,-8.448431396E-1,9.571695557E0,-7.455995178E-1,9.637791988E0
9.573020958E0,-8.434959412E-1,9.659263458E0,-6.858737183E-1,9.720250960E0
9.582951958E0,-8.403524780E-1,9.796228638E0,-6.529421997E-1,9.853863269E0
9.592881958E0,-8.060737610E-1,9.894125061E0,-7.182064819E-1,9.952853168E0
9.602811958E0,-7.670050049E-1,9.887987823E0,-7.592211914E-1,9.946708837E0
9.612742750E0,-7.607180786E-1,9.811945953E0,-7.694000244E-1,9.871420961E0
9.622672750E0,-7.655081177E-1,9.724827118E0,-7.946974182E-1,9.787226836E0
9.632602750E0,-8.378077698E-1,9.646240540E0,-8.922944641E-1,9.723583075E0
9.642533750E0,-9.716294861E-1,9.633367310E0,-9.547146606E-1,9.729198819E0
9.652463750E0,-1.102307739E0,9.668993225E0,-9.346563721E-1,9.776405008E0
9.662393750E0,-1.174906769E0,9.757309570E0,-9.023236084E-1,9.869127817E0
9.672323750E0,-1.199006653E0,9.844578094E0,-8.698411560E-1,9.955398458E0
9.682253750E0,-1.162183228E0,9.861492920E0,-8.539741516E-1,9.966392743E0
9.692184750E0,-1.080153809E0,9.767638092E0,-8.054750061E-1,9.860135706E0
9.702114750E0,-9.586065674E-1,9.606423340E0,-8.146060181E-1,9.688440478E0
9.712044750E0,-8.539741516E-1,9.495953064E0,-8.650511169E-1,9.573437725E0
9.721974750E0,-8.234376526E-1,9.483678589E0,-8.822653198E-1,9.560156967E0
9.731904750E0,-8.741821289E-1,9.568252716E0,-9.144483948E-1,9.651521657E0
9.741834750E0,-9.532177734E-1,9.703721008E0,-9.581575012E-1,9.797392068E0
9.751765750E0,-1.021625519E0,9.797276459E0,-9.380992126E-1,9.894967147E0
9.761695750E0,-1.062640228E0,9.847571869E0,-8.901988220E-1,9.944663388E0
9.771625750E0,-1.068178711E0,9.820178833E0,-8.397537231E-1,9.913733121E0
9.781555750E0,-1.060694275E0,9.765243073E0,-8.584648132E-1,9.860122030E0
9.791485750E0,-1.024619293E0,9.768236847E0,-9.205856323E-1,9.864875757E0
9.801415750E0,-1.023870850E0,9.812245331E0,-9.791139221E-1,9.913986787E0
9.811346750E0,-1.052760773E0,9.862391052E0,-1.014290771E0,9.970147857E0
9.821276750E0,-1.068029022E0,9.860594788E0,-1.000220032E0,9.968573402E0
9.831206750E0,-1.068178711E0,9.809101868E0,-9.252259827E-1,9.910374782E0
9.841136750E0,-1.087638245E0,9.755812683E0,-8.199948120E-1,9.850443114E0
9.851066750E0,-1.114731903E0,9.712552643E0,-7.545808411E-1,9.805391288E0
9.860997750E0,-1.079105988E0,9.677824860E0,-7.470964050E-1,9.766417807E0
9.870927750E0,-9.837542725E-1,9.674232330E0,-7.851173401E-1,9.755765110E0
9.880857750E0,-8.771759033E-1,9.690398712E0,-8.318202209E-1,9.765510209E0
9.890787750E0,-8.099656677E-1,9.714947662E0,-8.939410400E-1,9.789554793E0
9.900717750E0,-7.473957825E-1,9.734407196E0,-9.469308472E-1,9.808871594E0
9.910648750E0,-7.116201782E-1,9.740694122E0,-1.000070343E0,9.817722035E0
9.920578750E0,-7.676037598E-1,9.777816925E0,-1.028660889E0,9.861696739E0
9.930508750E0,-8.872050476E-1,9.825118561E0,-1.009500732E0,9.916611279E0
9.940438750E0,-1.004561005E0,9.837692413E0,-9.641450500E-1,9.935739052E0
9.950368750E0,-1.094523926E0,9.840686188E0,-9.412426758E-1,9.946005482E0
9.960298750E0,-1.143472137E0,9.839338989E0,-9.391470337E-1,9.949980775E0
9.970229750E0,-1.177451477E0,9.849068756E0,-9.241781616E-1,9.962161042E0
9.980159750E0,-1.205742645E0,9.799970856E0,-8.869056702E-1,9.913619206E0
9.990089750E0,-1.206790466E0,9.713001709E0,-9.369017029E-1,9.832422399E0
1.000001975E1,-1.215322723E0,9.621541901E0,-9.470805359E-1,9.744128458E0
1.000994975E1,-1.223106537E0,9.532327423E0,-9.090596008E-1,9.653374802E0
1.001988075E1,-1.224154358E0,9.460027771E0,-8.900491333E-1,9.580337509E0
1.002981075E1,-1.143023071E0,9.410929871E0,-8.419990540E-1,9.517408533E0
1.003974075E1,-1.011895752E0,9.387728119E0,-7.566764832E-1,9.472377291E0
1.004967075E1,-9.114546204E-1,9.451046448E0,-6.399192810E-1,9.516434478E0
1.005960075E1,-7.801776123E-1,9.570498047E0,-4.466711426E-1,9.612628417E0
1.006953075E1,-5.586383057E-1,9.643396454E0,-2.573149109E-1,9.662990370E0
1.007946175E1,-3.487747192E-1,9.679621124E0,-2.757266235E-1,9.689826319E0
1.008939175E1,-2.619552612E-1,9.722881165E0,-5.613327026E-1,9.742593756E0
1.009932175E1,-2.719844055E-1,9.673334198E0,-8.318202209E-1,9.712841752E0
1.010925175E1,-4.218228149E-1,9.566606140E0,-8.006849670E-1,9.609317559E0
1.011918175E1,-7.638615417E-1,9.414073334E0,-6.486012268E-1,9.467256453E0
1.012911175E1,-1.087638245E0,9.028924255E0,-4.755610657E-1,9.106623331E0
1.013904275E1,-1.165626068E0,8.650660858E0,-2.504292297E-1,8.732429915E0
1.014897275E1,-9.966275024E-1,8.323441315E0,-1.730401611E-1,8.384681544E0
1.015890275E1,-5.316943359E-1,8.014334106E0,-4.787045288E-1,8.046204575E0
1.016883275E1,-3.119512939E-1,7.769293671E0,-1.048868866E0,7.845977546E0
1.017876275E1,-5.831872559E-1,7.318281555E0,-1.596430206E0,7.513051424E0
1.018869375E1,-8.232879639E-1,6.821165314E0,-1.452130280E0,7.022448409E0
1.019862375E1,-9.668394470E-1,6.617588654E0,-4.068539429E-1,6.700208074E0
1.020855375E1,-9.771679688E-1,6.363866272E0,9.509724426E-1,6.508302371E0
1.021848375E1,-8.427474976E-1,5.669909363E0,1.870809631E0,6.029761538E0
1.022841375E1,-1.426084442E0,5.358257446E0,2.468516693E0,6.069449263E0
1.023834375E1,-1.823957062E0,5.119653625E0,3.256328430E0,6.335719963E0
1.024827475E1,-1.570234680E0,5.138364716E0,4.192781067E0,6.815265364E0
1.025820475E1,-1.845661926E0,5.827830963E0,4.709955597E0,7.717108487E0
1.026813475E1,-1.773062897E0,6.746470642E0,3.623814240E0,7.860702755E0
1.027806475E1,-1.122815094E0,7.676636353E0,2.231409760E0,8.072834009E0
1.028799475E1,-4.188290405E-1,8.888216858E0,2.517464905E0,9.247348064E0
1.029792575E1,-3.327580261E-1,9.724527740E0,4.914729767E0,1.090099704E1
1.030785575E1,-1.696571960E0,9.366172943E0,8.441246338E0,1.272235009E1
1.031778575E1,-4.425097961E0,7.841892700E0,1.124042542E1,1.440221985E1
1.032771575E1,-6.311026154E0,7.245383148E0,1.070214478E1,1.438264687E1
1.033764575E1,-4.653223572E0,7.890541534E0,8.251740417E0,1.232900463E1
1.034757575E1,-1.772763519E0,8.774303741E0,7.038663025E0,1.138744369E1
1.035750675E1,9.235794067E-2,9.647587738E0,6.083199921E0,1.140569158E1
1.036743675E1,7.575746155E-1,1.050590286E1,5.756728821E0,1.200365948E1
1.037736675E1,1.589694214E-1,1.152573212E1,6.684200134E0,1.332465022E1
1.038729675E1,-8.077203369E-1,1.283026932E1,7.314539337E0,1.479089952E1
1.039722675E1,-1.622925110E0,1.456022186E1,7.869734802E0,1.663029382E1
1.040715775E1,-2.362537079E0,1.630649048E1,8.847651215E0,1.870198239E1
1.041708775E1,-3.223995667E0,1.766551437E1,8.577163696E0,1.990055987E1
1.042701775E1,-4.497247925E0,1.864103577E1,8.635392609E0,2.103053634E1
1.043694775E1,-6.300398254E0,1.954874817E1,9.767338715E0,2.274311937E1
1.044687775E1,-7.689958649E0,2.011771500E1,9.615704041E0,2.358643010E1
1.045680775E1,-7.919431458E0,1.996563126E1,9.200317841E0,2.336642194E1
1.046673875E1,-7.073540497E0,1.940729233E1,8.718020782E0,2.242056772E1
1.047666875E1,-5.409001923E0,1.879491577E1,7.061116333E0,2.079340099E1
1.048659875E1,-3.720812531E0,1.889894943E1,5.165608063E0,1.994237303E1
1.049652875E1,-1.868414612E0,2.001263351E1,2.916684723E0,2.031018274E1
1.050645875E1,-2.433938599E-1,2.200588852E1,9.072633362E-1,2.202592783E1
1.051638875E1,-5.860313416E-1,2.721819946E1,-5.595364380E-1,2.723025699E1
1.052631975E1,-1.620530090E0,3.242467255E1,-3.378175049E0,3.264042852E1
1.053624975E1,-4.219725037E-1,3.003369461E1,-5.788313141E0,3.058930273E1
1.054617975E1,2.417173462E0,2.457843887E1,-4.036056976E0,2.502463068E1
1.055610975E1,5.102888489E-1,1.937974960E1,-1.676064606E0,1.945878418E1
1.056603975E1,-4.375251617E0,1.147798141E1,1.715283051E0,1.240278517E1
1.057597075E1,-6.443650360E0,4.334386597E0,2.673141174E0,8.212990982E0
1.058590075E1,-5.946983185E0,9.234297180E-1,-1.573078766E0,6.220442769E0
1.059583075E1,-8.123008118E0,3.563789062E0,-4.342469788E-1,8.881014796E0
1.060576075E1,-1.128158981E1,9.079369354E0,8.592132568E-2,1.448159518E1
1.061569033E1,-9.359436951E0,1.048958679E1,-1.065634003E0,1.409844200E1
1.062562033E1,-3.592529297E0,9.284442902E0,8.431366882E0,1.304588419E1
1.063555133E1,-2.459385681E-1,6.771917725E0,1.063478485E1,1.261023411E1
1.064548133E1,6.759643250E0,4.696483612E0,3.909719696E0,9.112389548E0
1.065541133E1,1.193827423E1,2.395917664E0,-1.343456268E0,1.225021175E1
1.066534133E1,1.000594254E1,-2.784210205E-1,-3.506458282E0,1.060620828E1
1.067527133E1,7.824379120E0,-2.474504242E0,-5.260061646E0,9.747426756E0
1.068520233E1,4.666096802E0,-3.972588959E0,-4.683161316E0,7.712711735E0
1.069513233E1,1.179696808E0,-4.515809326E0,-4.381388855E0,6.401623757E0
1.070506233E1,-8.322692871E-1,-4.361180878E0,-3.910019073E0,5.916149083E0
1.071499233E1,-3.384162598E0,-3.330723724E0,-3.078498230E0,5.658924665E0
1.072492233E1,-5.626050568E0,-2.209555206E0,-1.477727051E0,6.222399572E0
1.073485233E1,-5.391039276E0,-1.119671631E0,5.322930908E-1,5.531754240E0
1.074478333E1,-4.968468018E0,-8.532257080E-1,2.152972870E0,5.481693236E0
1.075471333E1,-4.066892853E0,-7.598199463E-1,3.004701691E0,5.113235382E0
1.076464333E1,-2.652184753E0,-7.646099854E-1,2.490970001E0,3.718016130E0
1.077457333E1,-1.576820984E0,-6.976991272E-1,4.956193542E-1,1.794097832E0
1.078450333E1,-4.436773682E-1,-2.109114075E-1,-1.525178375E0,1.602342755E0
1.079443433E1,8.822653198E-1,7.155120850E-1,-3.153043213E0,3.351422256E0
1.080436433E1,3.111130371E0,1.656305695E0,-4.053570557E0,5.371584031E0
1.081429433E1,4.838837585E0,1.767225037E0,-4.228856049E0,6.664882369E0
1.082422433E1,3.313659210E0,1.362017670E0,-2.909050598E0,4.614976151E0
1.083415433E1,1.505569153E0,8.011340332E-1,-9.485774231E-1,1.951500279E0
1.084408433E1,7.376660156E-1,8.876541138E-2,4.481680298E-1,8.676894789E-1
1.085401533E1,-5.538482666E-3,-6.709048462E-1,1.334025879E0,1.493241117E0
1.086394533E1,-7.056326294E-1,-1.195414124E0,2.120041351E0,2.534069388E0
1.087387533E1,-1.355581055E0,-1.289418640E0,2.672243042E0,3.262067335E0
1.088380533E1,-1.909878387E0,-9.288185120E-1,2.795736237E0,3.510908769E0
1.089373533E1,-2.195484467E0,-5.903723145E-1,2.564317474E0,3.427012638E0
1.090366633E1,-1.898502045E0,-4.544549561E-1,1.860481110E0,2.696707118E0
1.091359633E1,-1.184337158E0,-4.049079895E-1,9.346563721E-1,1.562109957E0
1.092352633E1,-4.773573303E-1,-3.821553040E-1,5.403762817E-2,6.138670560E-1
1.093345633E1,2.210902405E-1,-2.558180237E-1,-6.768923950E-1,7.566419696E-1
1.094338633E1,8.035290527E-1,-2.993774414E-3,-1.076860657E0,1.343613328E0
1.095331633E1,1.097517700E0,2.923420715E-1,-1.156944122E0,1.621273787E0
1.096324733E1,1.058299255E0,6.078858948E-1,-9.077124023E-1,1.521007686E0
1.097317733E1,8.955876160E-1,9.322613525E-1,-4.439767456E-1,1.366859085E0
1.098310733E1,5.758525085E-1,1.290915527E0,7.035369873E-2,1.415280415E0
1.099303733E1,4.370910645E-2,1.382824402E0,7.688012695E-1,1.582772632E0
1.100296733E1,-3.847000122E-1,1.096469879E0,1.398541718E0,1.818284695E0
1.101289833E1,-3.019221497E-1,7.921527100E-1,1.586251373E0,1.798570632E0
1.102282833E1,1.377136230E-2,1.938768311E0,1.246757355E0,2.305084839E0
1.103275833E1,-1.006357269E0,6.414910126E0,1.305734711E0,6.623350361E0
1.104268833E1,-2.691702576E0,1.529624130E1,3.418141937E0,1.590295429E1
1.105261833E1,-5.083129578E0,2.854369308E1,4.979694672E0,2.941730749E1
1.106254833E1,-1.262654297E1,4.636263840E1,7.413034515E0,4.861971727E1
1.107247933E1,-2.879741547E1,5.788717300E1,3.732787628E0,6.476225474E1
1.108240933E1,-2.640928162E1,4.496499481E1,1.367017273E1,5.390894672E1
1.109233933E1,-5.786965942E0,3.515873703E1,7.396119690E0,3.639132247E1
1.110226933E1,3.177741852E0,3.841970581E1,4.315525818E-1,3.855331471E1
1.111219933E1,6.217919769E0,3.384791290E1,1.039528290E1,3.595004368E1
1.112213033E1,4.450545044E0,1.963092728E1,1.412313080E0,2.017858482E1
1.113206033E1,2.474504242E0,8.870852966E0,-3.494782562E0,9.850315160E0
1.114199033E1,6.975494385E-2,2.660118256E0,2.805466003E0,3.866747261E0
1.115192033E1,-3.378025360E0,6.144721985E-1,8.834478607E0,9.478219436E0
1.116185033E1,-4.520449677E0,3.790118408E0,1.130404312E1,1.275071973E1
1.117178033E1,-2.767295380E0,9.647288361E0,1.007345215E1,1.421979376E1
1.118171133E1,-2.511926422E0,1.441397598E1,7.647746429E0,1.650940651E1
1.119164133E1,-1.658700714E0,1.625844040E1,6.458020477E0,1.757254110E1
1.120157133E1,-8.955876160E-1,1.603914642E1,6.396199036E0,1.729068123E1
1.121150133E1,-1.099463654E0,1.500689301E1,6.614445190E0,1.643674369E1
1.122143133E1,-1.896406403E0,1.311647415E1,6.126759338E0,1.460052846E1
1.123136133E1,-2.274520111E0,1.092263626E1,4.979694672E0,1.221780601E1
1.124129233E1,-2.277962952E0,9.435628510E0,3.478616180E0,1.031120609E1
1.125122233E1,-1.982926483E0,8.474177856E0,2.414029999E0,9.031679169E0
1.126115233E1,-1.811532898E0,7.760462036E0,1.894759827E0,8.191247601E0
1.127108233E1,-1.817520447E0,7.155420227E0,1.811383209E0,7.601613535E0
1.128101233E1,-1.942211151E0,6.751859436E0,2.057321777E0,7.320680494E0
1.129094333E1,-2.055076447E0,6.539750519E0,2.203118591E0,7.200375516E0
1.130087333E1,-2.221530304E0,6.555767212E0,2.176024933E0,7.255919317E0
1.131080333E1,-2.411784668E0,6.772965546E0,1.980830841E0,7.457443154E0
1.132073333E1,-2.314187622E0,6.941814423E0,1.678759003E0,7.507495163E0
1.133066333E1,-2.066003723E0,6.993906097E0,1.523531799E0,7.450116981E0
1.134059433E1,-1.954635315E0,7.099436646E0,1.398841095E0,7.495288941E0
1.135052433E1,-1.979483643E0,7.269333344E0,1.367855530E0,7.657192142E0
1.136045433E1,-2.174378357E0,7.541916504E0,1.461560669E0,7.984020627E0
1.137038433E1,-2.335443420E0,7.776179352E0,1.674418030E0,8.290171109E0
1.138031433E1,-2.520608368E0,8.050109711E0,2.064656525E0,8.684499955E0
1.139024433E1,-2.705174561E0,8.315657501E0,2.357747040E0,9.056881372E0
1.140017533E1,-2.795137482E0,8.517886963E0,2.351011047E0,9.267925593E0
1.141010533E1,-2.680625610E0,8.637937317E0,2.074086914E0,9.279092158E0
1.142003533E1,-2.558928680E0,8.733438721E0,1.804198151E0,9.277725952E0
1.142996533E1,-2.456092529E0,8.877439270E0,1.665287018E0,9.360261714E0
1.143989533E1,-2.324965210E0,9.056017914E0,1.661544800E0,9.496191595E0
1.144982533E1,-2.065404968E0,9.257199554E0,1.729503479E0,9.641204466E0
1.145975633E1,-1.743424530E0,9.425898743E0,1.753902740E0,9.744910006E0
1.146968633E1,-1.307381287E0,9.582922211E0,1.564097443E0,9.797348863E0
1.147961633E1,-9.777667236E-1,9.753717041E0,1.262923737E0,9.883622830E0
1.148954633E1,-7.432044983E-1,9.956545258E0,1.110839996E0,1.004585048E1
1.149947633E1,-5.393284607E-1,9.987081757E0,1.098116455E0,1.006173628E1
1.150940733E1,-3.103047180E-1,1.000983444E1,9.996212769E-1,1.006440844E1
1.151933733E1,-2.100132751E-1,1.004845413E1,9.265731812E-1,1.009326874E1
1.152926733E1,-1.360670471E-1,9.980046387E0,9.792636108E-1,1.002889811E1
1.153919733E1,-2.035766602E-1,9.962083740E0,9.383985901E-1,1.000825398E1
1.154912733E1,-4.487667847E-1,1.000878662E1,8.949888611E-1,1.005873781E1
1.155905733E1,-6.361770630E-1,9.951006775E0,8.798703003E-1,1.001006638E1
1.156898833E1,-7.699987793E-1,9.814939728E0,7.945477295E-1,9.877107171E0
1.157891833E1,-9.295669556E-1,9.691745911E0,6.650669861E-1,9.758911190E0
1.158884833E1,-1.110690308E0,9.587263184E0,4.462220764E-1,9.661695630E0
1.159877833E1,-1.334924011E0,9.504485321E0,1.603166199E-1,9.599112707E0
1.160870833E1,-1.529369659E0,9.373358002E0,-1.526824951E-2,9.497317774E0
1.161863896E1,-1.738484802E0,9.365574188E0,-1.363664246E-1,9.526536888E0
1.162856896E1,-1.940265198E0,9.331445160E0,-2.679428101E-1,9.534793714E0
1.163849896E1,-2.052831116E0,9.230704651E0,-3.284170532E-1,9.461917443E0
1.164842896E1,-2.216889954E0,9.154213715E0,-3.375480652E-1,9.424869681E0
1.165835896E1,-2.263143768E0,9.090146942E0,-3.261717224E-1,9.373312069E0
1.166828896E1,-2.220183105E0,9.097481689E0,-2.878514099E-1,9.368897723E0
1.167821996E1,-2.198777618E0,9.050928497E0,-3.046165466E-1,9.319158810E0
1.168814996E1,-2.091750183E0,9.032367096E0,-4.141886902E-1,9.280658730E0
1.169807996E1,-1.902393951E0,9.117989044E0,-5.348377991E-1,9.329677295E0
1.170800996E1,-1.768272858E0,9.274713135E0,-5.848338318E-1,9.459869092E0
1.171793996E1,-1.596430206E0,9.533075867E0,-5.769003296E-1,9.683023230E0
1.172787096E1,-1.379381561E0,9.659413147E0,-5.331912231E-1,9.771962378E0
1.173780096E1,-1.098266144E0,9.840386810E0,-4.736151123E-1,9.912805474E0
1.174773096E1,-7.872129822E-1,9.960287476E0,-4.676275635E-1,1.000228506E1
1.175766096E1,-5.897735596E-1,9.993069305E0,-5.891748047E-1,1.002778111E1
1.176759096E1,-4.733157349E-1,1.000923569E1,-6.996450806E-1,1.004481608E1
1.177752096E1,-4.920268250E-1,9.957742767E0,-8.131091309E-1,1.000299345E1
1.178745196E1,-5.842350769E-1,9.913883972E0,-9.228309631E-1,9.973868007E0
1.179738196E1,-6.987469482E-1,9.941277008E0,-9.199868774E-1,1.000817724E1
1.180731196E1,-8.324189758E-1,9.939480743E0,-8.818162537E-1,1.001318125E1
1.181724196E1,-8.719367981E-1,9.912536774E0,-8.005352783E-1,9.982961274E0
1.182717196E1,-9.746232605E-1,9.955796814E0,-7.532336426E-1,1.003170681E1
1.183710296E1,-1.022523651E0,9.897717590E0,-6.899153137E-1,9.974284498E0
1.184703296E1,-1.090332642E0,9.805958405E0,-6.939569092E-1,9.890764465E0
1.185696296E1,-1.179696808E0,9.751771088E0,-7.445516968E-1,9.851044672E0
1.186689296E1,-1.295106812E0,9.685608673E0,-8.602610779E-1,9.809605810E0
1.187682296E1,-1.394649811E0,9.672585754E0,-9.708810425E-1,9.820721627E0
1.188675296E1,-1.411714325E0,9.613309021E0,-9.542655945E-1,9.763158838E0
1.189668396E1,-1.374142456E0,9.582922211E0,-1.016985168E0,9.734214114E0
1.190661396E1,-1.351988525E0,9.500294037E0,-1.054257660E0,9.653751549E0
1.191654396E1,-1.237027588E0,9.423653412E0,-1.092128906E0,9.567038540E0
1.192647396E1,-1.009201355E0,9.469009094E0,-1.177900543E0,9.595210800E0
1.193640396E1,-8.081694031E-1,9.441316681E0,-1.250798950E0,9.558038317E0
1.194633496E1,-6.491999817E-1,9.508676605E0,-1.301693115E0,9.619292924E0
1.195626496E1,-4.861889648E-1,9.597741394E0,-1.329984283E0,9.701643045E0
1.196619496E1,-4.035607910E-1,9.704619141E0,-1.373394012E0,9.809623086E0
1.197612496E1,-3.864962769E-1,9.818831635E0,-1.323996735E0,9.915230779E0
1.198605496E1,-4.354444885E-1,9.878258057E0,-1.207987976E0,9.961366828E0
1.199598496E1,-5.783972168E-1,9.889784088E0,-1.098565521E0,9.967407830E0
1.200591596E1,-7.015910339E-1,9.864786072E0,-1.029559021E0,9.943149702E0
1.201584596E1,-7.831713867E-1,9.829160156E0,-1.015188904E0,9.912434379E0
1.202577596E1,-8.405021667E-1,9.803413696E0,-1.017434235E0,9.891841912E0
1.203570596E1,-8.870553589E-1,9.818681946E0,-1.050066376E0,9.914435020E0
1.204563596E1,-9.229806519E-1,9.820478210E0,-1.108744354E0,9.925875257E0
1.205556696E1,-9.318122864E-1,9.817334747E0,-1.189276886E0,9.932910711E0
1.206549696E1,-9.876461792E-1,9.813592529E0,-1.325493622E0,9.951832829E0
1.207542696E1,-1.049018555E0,9.841284943E0,-1.301543427E0,9.982251477E0
1.208535696E1,-1.077459412E0,9.535620575E0,-1.372495880E0,9.693952933E0
1.209528696E1,-1.098116455E0,9.460327148E0,-1.493294678E0,9.640206351E0
1.210521696E1,-9.943821716E-1,9.469009094E0,-1.456321564E0,9.631811960E0
1.211514796E1,-8.515791321E-1,9.586215363E0,-1.406924286E0,9.726260738E0
1.212507796E1,-7.596702576E-1,9.709409180E0,-1.392254791E0,9.838094273E0
1.213500796E1,-7.804769897E-1,9.773026886E0,-1.375190277E0,9.900118542E0
1.214493796E1,-8.063731384E-1,9.846973114E0,-1.317709808E0,9.967420744E0
1.215486796E1,-7.774832153E-1,9.900561676E0,-1.303339691E0,1.001620168E1
1.216479896E1,-7.170089722E-1,9.908046112E0,-1.321901093E0,1.002152195E1
1.217472896E1,-6.812333679E-1,9.858798523E0,-1.362616425E0,9.975806270E0
1.218465896E1,-7.161108398E-1,9.773475952E0,-1.378333740E0,9.896133125E0
1.219458896E1,-8.196954346E-1,9.723779297E0,-1.273252258E0,9.840983474E0
1.220451896E1,-9.894424438E-1,9.714947662E0,-1.194815369E0,9.838027658E0
1.221444896E1,-1.097667389E0,9.699080658E0,-1.185834045E0,9.832763685E0
1.222437996E1,-1.089733887E0,9.674980774E0,-1.182690582E0,9.807728072E0
1.223430996E1,-9.901908875E-1,9.710606689E0,-1.186432800E0,9.832801384E0
1.224423996E1,-9.077124023E-1,9.759255524E0,-1.161135406E0,9.869916191E0
1.225416996E1,-8.652008057E-1,9.788893890E0,-1.153800659E0,9.894557696E0
1.226409996E1,-8.575666809E-1,9.786648560E0,-1.151854706E0,9.891444783E0
1.227403096E1,-8.361611938E-1,9.762848053E0,-1.102607117E0,9.860431537E0
1.228396096E1,-8.065228271E-1,9.740245056E0,-1.087189178E0,9.833861558E0
1.229389096E1,-7.475454712E-1,9.755513306E0,-1.099463654E0,9.845693699E0
1.230382096E1,-7.135661316E-1,9.776769104E0,-1.097368011E0,9.864005641E0
1.231375096E1,-7.099736023E-1,9.791438599E0,-1.112336884E0,9.879960814E0
1.232368096E1,-7.173083496E-1,9.770182800E0,-1.112336884E0,9.859426787E0
1.233361196E1,-7.026388550E-1,9.755962372E0,-1.089284821E0,9.841699273E0
1.234354196E1,-6.824308777E-1,9.750423889E0,-1.087488556E0,9.834587398E0
1.235347196E1,-6.312373352E-1,9.745783539E0,-1.113085327E0,9.829431128E0
1.236340196E1,-6.056405640E-1,9.734706573E0,-1.146016846E0,9.820624582E0
1.237333196E1,-6.188131714E-1,9.713600464E0,-1.165925446E0,9.802874367E0
1.238326296E1,-6.857240295E-1,9.683513031E0,-1.107846222E0,9.770770968E0
1.239319296E1,-7.863148499E-1,9.659413147E0,-1.051712952E0,9.748264129E0
1.240312296E1,-8.482859802E-1,9.660910034E0,-1.022823029E0,9.751868474E0
1.241305296E1,-8.408015442E-1,9.687404938E0,-9.738748169E-1,9.772471224E0
1.242298296E1,-8.026309204E-1,9.705816650E0,-9.710307312E-1,9.787236276E0
1.243291396E1,-7.623646545E-1,9.719138947E0,-1.055455170E0,9.805959787E0
1.244284396E1,-7.496411133E-1,9.739795990E0,-1.100960541E0,9.830447693E0
1.245277396E1,-7.659571838E-1,9.736353149E0,-1.123264160E0,9.830818147E0
1.246270396E1,-7.828720093E-1,9.702673187E0,-1.128503265E0,9.799401777E0
1.247263396E1,-7.806266785E-1,9.640851746E0,-1.089733887E0,9.733597502E0
1.248256396E1,-7.893086243E-1,9.685458984E0,-1.059347076E0,9.775138877E0
1.249249496E1,-6.349795532E-1,9.618847504E0,-1.030008087E0,9.694655383E0
1.250242496E1,-6.210585022E-1,9.628577271E0,-1.172811127E0,9.719603894E0
1.251235496E1,-6.442602539E-1,9.789941711E0,-1.228645020E0,9.887749925E0
1.252228496E1,-6.646179199E-1,9.931247864E0,-1.200353851E0,1.002557981E1
1.253221496E1,-6.644682312E-1,9.969717865E0,-1.171463928E0,1.006027435E1
1.254214596E1,-6.503974915E-1,9.884844360E0,-1.197210388E0,9.978300338E0
1.255207596E1,-6.429130554E-1,9.796677704E0,-1.119671631E0,9.881391389E0
1.256200596E1,-7.162605286E-1,9.724378052E0,-1.040486298E0,9.806078185E0
1.257193596E1,-7.617658997E-1,9.731712799E0,-1.048569489E0,9.817638171E0
1.258186596E1,-8.741821289E-1,9.760003967E0,-1.042432251E0,9.854366384E0
1.259179596E1,-9.708810425E-1,9.817783813E0,-9.744735718E-1,9.913681846E0
1.260172696E1,-9.601034546E-1,9.794432373E0,-9.277706909E-1,9.885012019E0
1.261165771E1,-8.857081604E-1,9.755962372E0,-9.608518982E-1,9.843094895E0
1.262158771E1,-8.144563293E-1,9.727820892E0,-1.038091278E0,9.816897266E0
1.263151771E1,-7.903564453E-1,9.723180542E0,-1.075962524E0,9.814407701E0
1.264144771E1,-7.961943054E-1,9.708061981E0,-1.098715210E0,9.802426634E0
1.265137871E1,-8.117619324E-1,9.678573303E0,-1.101559296E0,9.774823349E0
1.266130871E1,-7.747888184E-1,9.684710541E0,-1.094972992E0,9.777161235E0
1.267123871E1,-7.315287781E-1,9.686806183E0,-1.088536377E0,9.775185923E0
1.268116871E1,-7.342231750E-1,9.693841553E0,-1.065933380E0,9.779870229E0
1.269109871E1,-7.466473389E-1,9.735155640E0,-1.005309448E0,9.815364724E0
1.270102971E1,-7.625143433E-1,9.739197235E0,-9.873468018E-1,9.818770015E0
1.271095971E1,-7.295828247E-1,9.727371826E0,-1.050365753E0,9.811081590E0
1.272088971E1,-7.092251587E-1,9.732012177E0,-1.083596649E0,9.817802352E0
1.273081971E1,-7.216493225E-1,9.732012177E0,-1.114731903E0,9.822192523E0
1.274074971E1,-7.625143433E-1,9.719288635E0,-1.151106262E0,9.816875538E0
1.275067971E1,-8.054750061E-1,9.697883148E0,-1.179397430E0,9.802484677E0
1.276061071E1,-8.605604553E-1,9.696985016E0,-1.170266418E0,9.805182619E0
1.277054071E1,-9.107061768E-1,9.697883148E0,-1.129850464E0,9.805859746E0
1.278047071E1,-9.550140381E-1,9.681417389E0,-1.102607117E0,9.790691341E0
1.279040071E1,-9.693841553E-1,9.665849762E0,-1.028660889E0,9.768648857E0
1.280033071E1,-9.246272278E-1,9.669442291E0,-9.948312378E-1,9.764360651E0
1.281026171E1,-8.298742676E-1,9.705666962E0,-1.010997620E0,9.793404855E0
1.282019171E1,-7.568261719E-1,9.725575562E0,-1.049617310E0,9.811284440E0
1.283012171E1,-7.345225525E-1,9.733359375E0,-1.084045715E0,9.821046951E0
1.284005171E1,-7.605683899E-1,9.734556885E0,-1.102756805E0,9.826298112E0
1.284998171E1,-8.006849670E-1,9.740394745E0,-1.107846222E0,9.835838015E0
1.285991171E1,-8.171507263E-1,9.762398987E0,-1.090781708E0,9.857077357E0
1.286984271E1,-8.762777710E-1,9.780211945E0,-1.054107971E0,9.875806399E0
1.287977271E1,-9.156459045E-1,9.763596497E0,-1.018781433E0,9.859215972E0
1.288970271E1,-9.090596008E-1,9.757758636E0,-1.008303223E0,9.851746970E0
1.289963271E1,-8.678952026E-1,9.738897858E0,-1.019380188E0,9.830488774E0
1.290956271E1,-8.387059021E-1,9.727820892E0,-1.053359528E0,9.820564811E0
1.291949371E1,-8.330177307E-1,9.707762604E0,-1.036744080E0,9.798439243E0
1.292942371E1,-8.005352783E-1,9.689650269E0,-1.017733612E0,9.775784407E0
1.293935371E1,-7.628137207E-1,9.697583771E0,-1.010548553E0,9.779888759E0
1.294928371E1,-7.476951599E-1,9.696985016E0,-1.026265869E0,9.779764214E0
1.295921371E1,-7.671546936E-1,9.709109802E0,-1.021475830E0,9.792790835E0
1.296914471E1,-7.887098694E-1,9.730814667E0,-1.011596375E0,9.814995902E0
1.297907471E1,-7.970924377E-1,9.752220154E0,-9.898915100E-1,9.834685531E0
1.298900471E1,-8.054750061E-1,9.740993500E0,-9.910890198E-1,9.824357577E0
1.299893471E1,-7.803273010E-1,9.735904083E0,-1.022673340E0,9.820519323E0
1.300886471E1,-7.688012695E-1,9.768236847E0,-1.026864624E0,9.852104214E0
1.301879471E1,-7.940986633E-1,9.793234863E0,-9.895921326E-1,9.875086550E0
1.302872571E1,-8.095166016E-1,9.804311829E0,-9.792636108E-1,9.886293784E0
1.303865571E1,-8.387059021E-1,9.775721283E0,-1.031804352E0,9.865737398E0
1.304858571E1,-8.366102600E-1,9.770033112E0,-1.074914703E0,9.864527629E0
1.305851571E1,-8.059240723E-1,9.755363617E0,-1.072070618E0,9.847129953E0
1.306844571E1,-8.020321655E-1,9.719288635E0,-1.072819061E0,9.811155279E0
1.307837671E1,-8.418493652E-1,9.701775055E0,-1.095422058E0,9.799647905E0
1.308830671E1,-8.695417786E-1,9.694290619E0,-1.072369995E0,9.792106562E0
1.309823671E1,-8.256829834E-1,9.706265717E0,-1.065933380E0,9.799467359E0
1.310816671E1,-7.714956665E-1,9.694889374E0,-1.123862915E0,9.790258086E0
1.311809671E1,-7.158114624E-1,9.698781281E0,-1.123563538E0,9.789848794E0
1.312802671E1,-7.197033691E-1,9.725126495E0,-1.091679840E0,9.812635893E0
1.313795771E1,-7.352709961E-1,9.737101593E0,-1.066981201E0,9.822943538E0
1.314788771E1,-7.572752380E-1,9.864486694E0,-1.051263885E0,9.949206968E0
1.315781771E1,-6.656657410E-1,9.749525757E0,-9.560618591E-1,9.818880671E0
1.316774771E1,-7.433541870E-1,9.623338165E0,-1.181044006E0,9.723994952E0
1.317767771E1,-8.649014282E-1,9.719288635E0,-1.227447510E0,9.834594727E0
1.318760871E1,-8.331674194E-1,9.743538208E0,-1.080602875E0,9.838618162E0
1.319753871E1,-7.849676514E-1,9.756261749E0,-1.062340851E0,9.845272247E0
1.320746871E1,-7.659571838E-1,9.748028870E0,-1.093326416E0,9.839010108E0
1.321739871E1,-7.488926697E-1,9.733059998E0,-1.094074860E0,9.822947467E0
1.322732871E1,-7.075785828E-1,9.712253265E0,-1.083147583E0,9.798047746E0
1.323725871E1,-7.158114624E-1,9.719288635E0,-1.108145599E0,9.808411915E0
1.324718971E1,-7.598199463E-1,9.727970581E0,-1.154998169E0,9.825719248E0
1.325711971E1,-7.819738770E-1,9.728719025E0,-1.154249725E0,9.828110166E0
1.326704971E1,-7.849676514E-1,9.720037079E0,-1.129102020E0,9.816830772E0
1.327697971E1,-7.605683899E-1,9.716743927E0,-1.134490814E0,9.812270187E0
1.328690971E1,-7.707472229E-1,9.720186768E0,-1.149309998E0,9.818197164E0
1.329684071E1,-7.891589355E-1,9.724078674E0,-1.178499298E0,9.826969954E0
1.330677071E1,-7.914042664E-1,9.716145172E0,-1.196162567E0,9.821435873E0
1.331670071E1,-7.807763672E-1,9.704020386E0,-1.166524200E0,9.805019230E0
1.332663071E1,-7.566764832E-1,9.706415405E0,-1.144370270E0,9.802889504E0
1.333656071E1,-7.508386230E-1,9.689949646E0,-1.129102020E0,9.784362736E0
1.334649171E1,-7.625143433E-1,9.695488129E0,-1.135388947E0,9.791477224E0
1.335642171E1,-7.595205688E-1,9.909842377E0,-1.103205872E0,9.999945531E0
1.336635171E1,-7.003935242E-1,9.589807892E0,-1.140777740E0,9.682785774E0
1.337628171E1,-7.905061340E-1,9.612560577E0,-1.341809692E0,9.737898852E0
1.338621171E1,-8.622070313E-1,9.706415405E0,-1.273102570E0,9.827445809E0
1.339614171E1,-7.611671448E-1,9.739795990E0,-1.214873657E0,9.844740695E0
1.340607271E1,-7.110214233E-1,9.766889648E0,-1.242266693E0,9.871216308E0
1.341600271E1,-7.339237976E-1,9.811197510E0,-1.243164825E0,9.916839189E0
1.342593271E1,-7.652087402E-1,9.823322296E0,-1.198707275E0,9.925729418E0
1.343586271E1,-8.009843445E-1,9.774673462E0,-1.137783966E0,9.873214753E0
1.344579271E1,-8.277786255E-1,9.742191010E0,-1.126108246E0,9.841931868E0
1.345572371E1,-8.315208435E-1,9.729018402E0,-1.155896301E0,9.832666080E0
1.346565371E1,-8.187973022E-1,9.740993500E0,-1.175655212E0,9.845788367E0
1.347558371E1,-8.014334106E-1,9.759554901E0,-1.195114746E0,9.865064959E0
1.348551371E1,-7.834707642E-1,9.774074707E0,-1.154998169E0,9.873215463E0
1.349544371E1,-7.455995178E-1,9.783505096E0,-1.132245483E0,9.876986911E0
1.350537471E1,-7.089257812E-1,9.767189026E0,-1.108295288E0,9.855398301E0
1.351530471E1,-6.903643799E-1,9.717342682E0,-1.113833771E0,9.805303537E0
1.352523471E1,-7.056326294E-1,9.674831085E0,-1.132544861E0,9.766418576E0
1.353516471E1,-7.110214233E-1,9.674382019E0,-1.135089569E0,9.766659984E0
1.354509471E1,-7.206015015E-1,9.708660736E0,-1.098864899E0,9.797186529E0
1.355502471E1,-6.990463257E-1,9.727970581E0,-1.120270386E0,9.817183055E0
1.356495571E1,-6.605763245E-1,9.729766846E0,-1.151255951E0,9.819883615E0
1.357488571E1,-6.486012268E-1,9.750423889E0,-1.126707001E0,9.836712776E0
1.358481571E1,-6.700067139E-1,9.768835602E0,-1.077459412E0,9.850887107E0
1.359474571E1,-7.092251587E-1,9.770931244E0,-1.061592407E0,9.853987829E0
1.360467571E1,-7.375163269E-1,9.759704590E0,-1.085841980E0,9.847579236E0
1.361460675E1,-7.339237976E-1,9.760303345E0,-1.073866882E0,9.846591065E0
1.362453675E1,-7.530839539E-1,9.732161865E0,-1.118025055E0,9.825074556E0
1.363446675E1,-7.908055115E-1,9.703271942E0,-1.153201904E0,9.803506228E0
1.364439675E1,-8.183482361E-1,9.684860229E0,-1.150058441E0,9.787177628E0
1.365432675E1,-8.223898315E-1,9.681417389E0,-1.152902527E0,9.784444385E0
1.366425675E1,-8.122109985E-1,9.680668945E0,-1.136586456E0,9.780944060E0
1.367418775E1,-7.514373779E-1,9.671837311E0,-1.162632294E0,9.770404749E0
1.368411775E1,-6.933581543E-1,9.661957855E0,-1.238674164E0,9.765679127E0
1.369404775E1,-6.804849243E-1,9.680219879E0,-1.252595215E0,9.784616059E0
1.370397775E1,-6.882687378E-1,9.691446533E0,-1.237925720E0,9.794401965E0
1.371390775E1,-7.089257812E-1,9.670939178E0,-1.265169067E0,9.779074247E0
1.372383875E1,-7.147636414E-1,9.653724976E0,-1.268162842E0,9.762864844E0
1.373376875E1,-7.755372620E-1,9.690847778E0,-1.247206421E0,9.801505627E0
1.374369875E1,-8.262817383E-1,9.748328247E0,-1.205892334E0,9.857323239E0
1.375362875E1,-8.044271851E-1,9.767338715E0,-1.172661438E0,9.870316282E0
1.376355875E1,-8.152047729E-1,9.788145447E0,-1.159937897E0,9.890288471E0
1.377348875E1,-8.440946960E-1,9.811197510E0,-1.170565796E0,9.916769470E0
1.378341975E1,-9.033714294E-1,9.808503113E0,-1.154100037E0,9.917396843E0
1.379334975E1,-9.445358276E-1,9.801767120E0,-1.135239258E0,9.912393999E0
1.380327975E1,-9.648934937E-1,9.759405212E0,-1.164428558E0,9.875874818E0
1.381320975E1,-9.616003418E-1,9.747729492E0,-1.236428833E0,9.872773761E0
1.382313975E1,-9.386979675E-1,9.744885406E0,-1.268462219E0,9.871825660E0
1.383307075E1,-8.924441528E-1,9.744586029E0,-1.244062958E0,9.864132303E0
1.384300075E1,-8.336164856E-1,9.718540192E0,-1.199605408E0,9.827715555E0
1.385293075E1,-8.002359009E-1,9.691446533E0,-1.193917236E0,9.797446186E0
1.386286075E1,-7.717950439E-1,9.698930969E0,-1.190324707E0,9.802132546E0
1.387279075E1,-7.394622803E-1,9.731263733E0,-1.186881866E0,9.831225095E0
1.388272175E1,-7.092251587E-1,9.710457001E0,-1.205742645E0,9.810697774E0
1.389265175E1,-6.968009949E-1,9.670340424E0,-1.204245758E0,9.769914195E0
1.390258175E1,-7.071295166E-1,9.676178284E0,-1.153351593E0,9.770295708E0
1.391251175E1,-7.250921631E-1,9.711804199E0,-1.090931396E0,9.799746464E0
1.392244175E1,-7.258406067E-1,9.729018402E0,-1.093027039E0,9.817094874E0
1.393237175E1,-7.131170654E-1,9.737251282E0,-1.083297272E0,9.823244446E0
1.394230275E1,-7.128176880E-1,9.754016418E0,-1.121467896E0,9.844116801E0
1.395223275E1,-7.216493225E-1,9.768536224E0,-1.180894318E0,9.866082764E0
1.396216275E1,-7.677534485E-1,9.756710815E0,-1.216520233E0,9.862189046E0
1.397209275E1,-7.789801025E-1,9.701924744E0,-1.274898834E0,9.816288543E0
1.398202275E1,-7.258406067E-1,9.739945679E0,-1.278341675E0,9.850256030E0
1.399195375E1,-6.102809143E-1,9.485325165E0,-1.317560120E0,9.595822057E0
1.400188375E1,-6.608757019E-1,9.622739410E0,-1.455722809E0,9.754639888E0
1.401181375E1,-6.593788147E-1,9.727072449E0,-1.335672455E0,9.840464407E0
1.402174375E1,-6.402186584E-1,9.734257507E0,-1.312021637E0,9.843121960E0
1.403167375E1,-6.923103333E-1,9.726623383E0,-1.343456268E0,9.843341443E0
1.404160475E1,-7.556286621E-1,9.723030853E0,-1.335822144E0,9.843410204E0
1.405153475E1,-8.048762512E-1,9.723030853E0,-1.312021637E0,9.844112734E0
1.406146475E1,-8.448431396E-1,9.729168091E0,-1.291364594E0,9.850791551E0
1.407139475E1,-8.662486267E-1,9.739795990E0,-1.244062958E0,9.857063724E0
1.408132475E1,-8.485853577E-1,9.739047546E0,-1.206042023E0,9.850059979E0
1.409125475E1,-7.991880798E-1,9.725874939E0,-1.226100311E0,9.835378330E0
1.410118575E1,-7.756869507E-1,9.743238831E0,-1.275198212E0,9.856902335E0
1.411111575E1,-8.086184692E-1,9.747430115E0,-1.303040314E0,9.867328500E0
1.412104575E1,-8.165519714E-1,9.756261749E0,-1.269210663E0,9.872299436E0
1.413097575E1,-7.803273010E-1,9.751920776E0,-1.254241791E0,9.863163387E0
1.414090575E1,-7.551795959E-1,9.753567352E0,-1.252146149E0,9.862567733E0
1.415083675E1,-7.493417358E-1,9.735305328E0,-1.250499573E0,9.843852501E0
1.416076675E1,-7.479945374E-1,9.703870697E0,-1.244512024E0,9.811901575E0
1.417069675E1,-7.599696350E-1,9.706714783E0,-1.251547394E0,9.816528745E0
1.418062675E1,-7.810757446E-1,9.720336456E0,-1.230590973E0,9.829006780E0
1.419055675E1,-7.966433716E-1,9.735005951E0,-1.195563812E0,9.840444825E0
1.420048675E1,-7.735913086E-1,9.735005951E0,-1.191821594E0,9.838151406E0
1.421041775E1,-7.488926697E-1,9.732012177E0,-1.217867432E0,9.836467980E0
1.422034775E1,-7.412585449E-1,9.726324005E0,-1.227297821E0,9.831434424E0
1.423027775E1,-7.325765991E-1,9.730365601E0,-1.234033813E0,9.835625178E0
1.424020775E1,-7.102729797E-1,9.724228363E0,-1.241667938E0,9.828878076E0
1.425013775E1,-7.072792053E-1,9.729018402E0,-1.224603424E0,9.831261185E0
1.426006875E1,-7.384144592E-1,9.741442566E0,-1.207389221E0,9.843716164E0
1.426999875E1,-7.592211914E-1,9.763746185E0,-1.213825836E0,9.868157353E0
1.427992875E1,-7.834707642E-1,9.786498871E0,-1.213077393E0,9.892469022E0
1.428985875E1,-7.994874573E-1,9.775122528E0,-1.196761322E0,9.880507998E0
1.429978875E1,-8.161029053E-1,9.741741943E0,-1.258433075E0,9.856531532E0
1.430971975E1,-8.060737610E-1,9.714947662E0,-1.299148407E0,9.834518269E0
1.431964975E1,-7.967930603E-1,9.706565094E0,-1.290017395E0,9.824277581E0
1.432957975E1,-8.053253174E-1,9.698930969E0,-1.285676422E0,9.816861753E0
1.433950975E1,-8.319699097E-1,9.667945404E0,-1.277144165E0,9.787361212E0
1.434943975E1,-8.255332947E-1,9.621691589E0,-1.216370544E0,9.733345343E0
1.435936975E1,-7.557783508E-1,9.620045013E0,-1.222208405E0,9.726780575E0
1.436930075E1,-7.113208008E-1,9.670639801E0,-1.251397705E0,9.777179944E0
1.437923075E1,-7.122189331E-1,9.727222137E0,-1.296903076E0,9.839108898E0
1.438916075E1,-7.560777283E-1,9.779912567E0,-1.322948914E0,9.897905697E0
1.439909075E1,-8.279283142E-1,9.815837860E0,-1.252894592E0,9.930049499E0
1.440902075E1,-8.532257080E-1,9.814340973E0,-1.193917236E0,9.923443012E0
1.441895175E1,-8.430468750E-1,9.789492645E0,-1.169517975E0,9.895082950E0
1.442888175E1,-8.541238403E-1,9.746382294E0,-1.180295563E0,9.854673661E0
1.443881175E1,-8.629554749E-1,9.713750153E0,-1.185684357E0,9.823822147E0
1.444874175E1,-8.827143860E-1,9.686207428E0,-1.184486847E0,9.798204331E0
1.445867175E1,-9.012757874E-1,9.665700073E0,-1.195414124E0,9.780954497E0
1.446860275E1,-8.755293274E-1,9.668993225E0,-1.174757080E0,9.779367862E0
1.447853275E1,-7.957452393E-1,9.669142914E0,-1.161285095E0,9.771085827E0
1.448846275E1,-7.406597900E-1,9.689500580E0,-1.160237274E0,9.786784403E0
1.449839275E1,-7.292834473E-1,9.715845795E0,-1.124611359E0,9.807867483E0
1.450832275E1,-7.029382324E-1,9.727820892E0,-1.109193420E0,9.816054784E0
1.451825275E1,-6.782395935E-1,9.727222137E0,-1.130000153E0,9.816096974E0
1.452818375E1,-6.658154297E-1,9.726324005E0,-1.174158325E0,9.819538513E0
1.453811375E1,-6.691085815E-1,9.741891632E0,-1.190474396E0,9.837143292E0
1.454804375E1,-6.948550415E-1,9.751771088E0,-1.165626068E0,9.845737504E0
1.455797375E1,-6.810836792E-1,9.756411438E0,-1.174457703E0,9.850420804E0
1.456790375E1,-6.908134460E-1,9.749825134E0,-1.181493073E0,9.845417170E0
1.457783475E1,-7.219487000E-1,9.720785522E0,-1.154549103E0,9.815694816E0
1.458776475E1,-7.638615417E-1,9.697883148E0,-1.124311981E0,9.792675806E0
1.459769475E1,-7.475454712E-1,9.678872681E0,-1.111438751E0,9.771115428E0
1.460762475E1,-7.283853149E-1,9.683962097E0,-1.136586456E0,9.777601743E0
1.461755458E1,-7.598199463E-1,9.709409180E0,-1.173709259E0,9.809564027E0
1.462748458E1,-7.851173401E-1,9.714348907E0,-1.213227081E0,9.821247573E0
1.463741558E1,-7.926017761E-1,9.718390503E0,-1.225501556E0,9.827369211E0
1.464734558E1,-7.860154724E-1,9.706714783E0,-1.225800934E0,9.815330872E0
1.465727558E1,-7.819738770E-1,9.701176300E0,-1.235081635E0,9.810694746E0
1.466720558E1,-7.975415039E-1,9.706415405E0,-1.201850739E0,9.813002480E0
1.467713558E1,-8.086184692E-1,9.703122253E0,-1.151705017E0,9.804635115E0
1.468706658E1,-7.979905701E-1,9.705517273E0,-1.138682098E0,9.804613782E0
1.469699658E1,-7.469467163E-1,9.708211670E0,-1.178499298E0,9.807964306E0
1.470692658E1,-7.391629028E-1,9.719138947E0,-1.213227081E0,9.822420456E0
1.471685658E1,-7.783813477E-1,9.726623383E0,-1.226848755E0,9.834543091E0
1.472678658E1,-8.331674194E-1,9.754615173E0,-1.212778015E0,9.864964047E0
1.473671758E1,-8.412506104E-1,9.777367859E0,-1.190624084E0,9.885454494E0
1.474664758E1,-7.984396362E-1,9.765991516E0,-1.165775757E0,9.867681048E0
1.475657758E1,-7.801776123E-1,9.739646301E0,-1.145567780E0,9.837769702E0
1.476650758E1,-7.797285461E-1,9.709409180E0,-1.134041748E0,9.806459805E0
1.477643758E1,-7.732919312E-1,9.695338440E0,-1.129401398E0,9.791481777E0
1.478636758E1,-7.461982727E-1,9.707014160E0,-1.129102020E0,9.800908485E0
1.479629858E1,-7.397616577E-1,9.726623383E0,-1.162332916E0,9.823719639E0
1.480622858E1,-7.418572998E-1,9.713301086E0,-1.213526459E0,9.816884267E0
1.481615858E1,-7.714956665E-1,9.697583771E0,-1.221310272E0,9.804587464E0
1.482608858E1,-8.204438782E-1,9.702822876E0,-1.250200195E0,9.817377473E0
1.483601858E1,-8.650511169E-1,9.711504822E0,-1.260079651E0,9.831044709E0
1.484594958E1,-8.509803772E-1,9.717342682E0,-1.204994202E0,9.828678824E0
1.485587958E1,-8.083190918E-1,9.715995483E0,-1.192120972E0,9.822173914E0
1.486580958E1,-7.773335266E-1,9.721084900E0,-1.235081635E0,9.830013514E0
1.487573958E1,-7.599696350E-1,9.712402954E0,-1.285975800E0,9.826599552E0
1.488566958E1,-7.714956665E-1,9.676178284E0,-1.351838837E0,9.800566309E0
1.489560058E1,-8.193960571E-1,9.664352875E0,-1.379082184E0,9.796580733E0
1.490553058E1,-8.433462524E-1,9.674531708E0,-1.338067474E0,9.802970021E0
1.491546058E1,-8.330177307E-1,9.704768829E0,-1.318757629E0,9.829322370E0
1.492539058E1,-8.211923218E-1,9.738897858E0,-1.294807434E0,9.858854629E0
1.493532058E1,-8.048762512E-1,9.749226379E0,-1.256038055E0,9.862701069E0
1.494525058E1,-8.159532166E-1,9.735155640E0,-1.242715759E0,9.848013883E0
1.495518158E1,-8.611592102E-1,9.712103577E0,-1.243763580E0,9.829216597E0
1.496511158E1,-8.984317017E-1,9.714348907E0,-1.253343658E0,9.835986201E0
1.497504158E1,-9.122030640E-1,9.711804199E0,-1.230291595E0,9.831829567E0
1.498497158E1,-8.708889771E-1,9.713750153E0,-1.237626343E0,9.830926131E0
1.499490158E1,-8.234376526E-1,9.714049530E0,-1.266665955E0,9.830831627E0
1.500483258E1,-8.141569519E-1,9.791139221E0,-1.289867706E0,9.909238997E0
1.501476258E1,-7.216493225E-1,9.796078949E0,-1.204545135E0,9.896204803E0
1.502469258E1,-7.378157043E-1,9.680519257E0,-1.349743195E0,9.801970811E0
1.503462258E1,-7.764353943E-1,9.716294861E0,-1.382674713E0,9.844847744E0
1.504455258E1,-7.333250427E-1,9.707014160E0,-1.291514282E0,9.819974474E0
1.505448358E1,-7.029382324E-1,9.693691864E0,-1.262324982E0,9.800777952E0
1.506441358E1,-7.039860535E-1,9.687255249E0,-1.290915527E0,9.798212772E0
1.507434358E1,-6.991960144E-1,9.700727234E0,-1.323098602E0,9.815476241E0
1.508427358E1,-7.137158203E-1,9.717642059E0,-1.353485413E0,9.837371612E0
1.509420358E1,-7.620652771E-1,9.721384277E0,-1.373094635E0,9.847408016E0
1.510413358E1,-8.131091309E-1,9.724677429E0,-1.367855530E0,9.854010671E0
1.511406458E1,-8.411009216E-1,9.714049530E0,-1.304836578E0,9.837317090E0
1.512399458E1,-8.431965637E-1,9.694290619E0,-1.231040039E0,9.808450980E0
1.513392458E1,-8.168513489E-1,9.685608673E0,-1.225202179E0,9.796906750E0
1.514385458E1,-7.936495972E-1,9.687554626E0,-1.202299805E0,9.794085927E0
1.515378458E1,-7.848179626E-1,9.704469452E0,-1.211281128E0,9.811211370E0
1.516371558E1,-7.587721252E-1,9.729467468E0,-1.230590973E0,9.836291298E0
1.517364558E1,-7.188052368E-1,9.746232605E0,-1.282083893E0,9.856443074E0
1.518357558E1,-7.119195557E-1,9.746831360E0,-1.371597748E0,9.868577982E0
1.519350558E1,-7.527845764E-1,9.747430115E0,-1.348994751E0,9.869086346E0
1.520343558E1,-7.756869507E-1,9.739646301E0,-1.241667938E0,9.849067955E0
1.521336558E1,-7.641609192E-1,9.704020386E0,-1.162033539E0,9.803176807E0
1.522329658E1,-7.667056274E-1,9.682315521E0,-1.147813110E0,9.780211977E0
1.523322658E1,-7.637118530E-1,9.722731476E0,-1.178648987E0,9.823643753E0
1.524315658E1,-7.581733704E-1,9.784253540E0,-1.181792450E0,9.884486714E0
1.525308658E1,-7.203021240E-1,9.802964630E0,-1.189576263E0,9.901113189E0
1.526301658E1,-6.604266357E-1,9.743837585E0,-1.247505798E0,9.845547468E0
1.527294758E1,-6.071374512E-1,9.676627350E0,-1.268611908E0,9.778297854E0
1.528287758E1,-5.770500183E-1,9.686057739E0,-1.215173035E0,9.779025859E0
1.529280758E1,-5.557942200E-1,9.757758636E0,-1.180894318E0,9.844657039E0
1.530273758E1,-5.156776428E-1,9.832004242E0,-1.198557587E0,9.918204028E0
1.531266758E1,-4.689747620E-1,9.865534515E0,-1.261277161E0,9.956883482E0
1.532259858E1,-4.050576782E-1,9.789792023E0,-1.330433350E0,9.888081334E0
1.533252858E1,-3.832031250E-1,9.695787506E0,-1.301693115E0,9.790278084E0
1.534245858E1,-4.736151123E-1,9.626331940E0,-1.280437317E0,9.722658978E0
1.535238858E1,-6.375242615E-1,9.527836761E0,-1.245859222E0,9.630071430E0
1.536231858E1,-7.714956665E-1,9.497300262E0,-1.231040039E0,9.607776924E0
1.537224958E1,-8.204438782E-1,9.544601898E0,-1.196012878E0,9.654170102E0
1.538217958E1,-7.937992859E-1,9.652078400E0,-1.148262177E0,9.752499206E0
1.539210958E1,-7.209008789E-1,9.732311554E0,-1.080602875E0,9.818619497E0
1.540203958E1,-6.322851562E-1,9.749226379E0,-9.943821716E-1,9.820183064E0
1.541196958E1,-6.087840271E-1,9.702523499E0,-8.291258240E-1,9.756896528E0
1.542189958E1,-7.006929016E-1,9.578281860E0,-7.484436035E-1,9.632996510E0
1.543183058E1,-8.030799866E-1,9.323661346E0,-9.304650879E-1,9.404326858E0
1.544176058E1,-8.991801453E-1,8.924441528E0,-1.233584747E0,9.054055050E0
1.545169058E1,-1.112486572E0,8.495733032E0,-1.666334839E0,8.728790175E0
1.546162058E1,-1.497336273E0,7.873477020E0,-2.094145203E0,8.283664674E0
1.547155058E1,-1.917961578E0,7.218888245E0,-2.151625671E0,7.773057129E0
1.548148158E1,-2.040257263E0,6.700366516E0,-1.956880646E0,7.272340958E0
1.549141158E1,-1.884131927E0,6.336173859E0,-1.770667877E0,6.843414135E0
1.550134158E1,-1.726809082E0,6.339467010E0,-1.385668488E0,6.714967516E0
1.551127158E1,-1.748364258E0,6.805747375E0,-8.414002991E-1,7.076929375E0
1.552120158E1,-1.504072266E0,7.383845215E0,-4.083508301E-1,7.546532577E0
1.553113258E1,-1.108744354E0,8.067473602E0,7.783813477E-3,8.143310442E0
1.554106258E1,-8.550219727E-1,8.657247162E0,4.543052673E-1,8.711221744E0
1.555099258E1,-3.839515686E-1,9.064999237E0,6.161187744E-1,9.094021790E0
1.556092258E1,1.448986816E-1,9.244326324E0,1.014889526E-1,9.246018864E0
1.557085258E1,-4.107458496E-1,8.830437012E0,2.383044434E-1,8.843196197E0
1.558078258E1,-1.248852997E0,7.920628967E0,9.898915100E-1,8.079349123E0
1.559071358E1,-1.899998932E0,7.415728912E0,1.312171326E0,7.766905744E0
1.560064358E1,-2.201771393E0,7.631580048E0,1.692530365E0,8.121174196E0
1.561057346E1,-2.647245026E0,8.350834351E0,3.264860687E0,9.348992239E0
1.562050346E1,-2.110760651E0,8.603808289E0,5.518873444E0,1.043737475E1
1.563043346E1,-2.474354553E-1,8.547675018E0,7.435338135E0,1.133173533E1
1.564036446E1,1.189725952E0,8.392747192E0,7.920628967E0,1.160129374E1
1.565029446E1,6.243516541E-1,8.216563568E0,7.400011597E0,1.107528345E1
1.566022446E1,-1.589993591E0,8.009993134E0,7.357350311E0,1.099175478E1
1.567015446E1,-4.218976593E0,7.677833862E0,7.681426392E0,1.165131785E1
1.568008446E1,-5.139412537E0,7.338938599E0,8.204438782E0,1.214851418E1
1.569001546E1,-4.065246277E0,7.162605286E0,9.439819794E0,1.252754324E1
1.569994546E1,-2.381547546E0,7.573650513E0,9.960586853E0,1.273755240E1
1.570987546E1,-7.583230591E-1,8.447832642E0,8.532257080E0,1.203080800E1
1.571980546E1,6.053411865E-1,9.808353424E0,7.578290863E0,1.240970295E1
1.572973546E1,7.743397522E-1,1.146974854E1,9.234147491E0,1.474531157E1
1.573966546E1,-6.559359741E-1,1.265962418E1,1.054991135E1,1.649233051E1
1.574959646E1,-2.365231476E0,1.372825195E1,1.048404831E1,1.743486423E1
1.575952646E1,-3.986959076E0,1.493100082E1,1.108280319E1,1.901733827E1
1.576945646E1,-4.907694397E0,1.574051743E1,1.166973267E1,2.019980232E1
1.577938646E1,-5.308710480E0,1.665137329E1,1.231204697E1,2.137842698E1
1.578931646E1,-5.317991180E0,1.745789612E1,1.191836563E1,2.179694030E1
1.579924746E1,-4.646038513E0,1.782927383E1,9.898615723E0,2.091533582E1
1.580917746E1,-3.929328918E0,1.798824326E1,8.348439331E0,2.021665057E1
1.581910746E1,-3.356619873E0,1.850317245E1,6.332731018E0,1.984282666E1
1.582903746E1,-2.954106903E0,1.957239899E1,3.535797272E0,2.010739695E1
1.583896746E1,-2.803220673E0,2.169992477E1,1.274150391E0,2.191730459E1
1.584889846E1,-3.482807465E0,2.477498016E1,-4.326004028E-2,2.501862229E1
1.585882846E1,-5.800288239E0,2.941368393E1,-1.450034637E0,3.001517527E1
1.586875846E1,-7.943231964E0,3.572126724E1,-4.531826019E0,3.687331440E1
1.587868846E1,-5.838309174E0,3.318898315E1,-3.863465881E0,3.391932820E1
1.588861846E1,-5.978567505E-1,2.458292953E1,-5.995033264E-1,2.459750519E1
1.589854846E1,-1.482966156E0,1.691766953E1,5.279521179E-1,1.699074643E1
1.590847946E1,-5.811065826E0,1.038600220E1,1.742975464E0,1.202811253E1
1.591840946E1,-5.786367188E0,4.643793182E0,3.122656403E0,8.049710762E0
1.592833946E1,-2.069745941E0,3.817062378E-1,1.843117218E0,2.797611301E0
1.593826946E1,-9.244775391E-1,2.393522644E-1,-1.451531525E0,1.737495897E0
1.594819946E1,-1.253942413E0,1.364113312E0,-5.253625031E0,5.570794617E0
1.595813046E1,-2.099833374E0,5.532345428E0,-4.264931030E0,7.294229420E0
1.596806046E1,-3.335513763E0,9.222920837E0,6.386020203E0,1.170338305E1
1.597799046E1,-2.959495697E0,8.025860138E0,1.078656921E1,1.376673967E1
1.598792046E1,1.691781921E0,5.407055969E0,7.619305573E0,9.494851117E0
1.599785046E1,6.483168182E0,3.136727142E0,2.744393005E0,7.707283556E0
1.600778146E1,7.811056824E0,2.823129272E-1,-8.922944641E-1,7.866924348E0
1.601771146E1,6.478976898E0,-1.273851013E0,-2.366428986E0,7.014258635E0
1.602764146E1,4.083059235E0,-1.926194458E0,-1.905387726E0,4.900214300E0
1.603757146E1,7.943980408E-1,-3.130140839E0,-8.948391724E-1,3.351057603E0
1.604750146E1,-1.330433350E0,-3.533701630E0,-1.257834320E0,3.979855184E0
1.605743246E1,-2.159559174E0,-3.350033569E0,-2.935545502E0,4.950136173E0
1.606736246E1,-1.705104218E0,-2.679577789E0,-4.468956757E0,5.482617259E0
1.607729246E1,-1.563798065E0,-1.739682312E0,-5.174589386E0,5.678761683E0
1.608722246E1,-1.672023010E0,-7.812254333E-1,-4.451892242E0,4.819265365E0
1.609715246E1,-1.066981201E0,-3.944297791E-1,-2.464175720E0,2.714071796E0
1.610708346E1,-6.548881531E-1,-4.584965515E-1,1.083746338E-1,8.067481900E-1
1.611701346E1,-9.601034546E-1,-7.691006470E-1,1.565744019E0,1.991197826E0
1.612694346E1,-1.407373352E0,-9.734257507E-1,1.139729919E0,2.056025713E0
1.613687346E1,-1.287472687E0,-8.831634521E-1,-4.269122314E-1,1.618585078E0
1.614680346E1,-8.806187439E-1,-6.756948853E-1,-1.989213409E0,2.277942699E0
1.615673346E1,-5.757028198E-1,-2.731819153E-1,-2.528242493E0,2.607311297E0
1.616666446E1,-2.395019531E-1,1.727407837E-1,-2.093995514E0,2.114714585E0
1.617659446E1,6.825805664E-2,4.834945679E-1,-1.433119812E0,1.514020659E0
1.618652446E1,3.170407104E-1,6.685098267E-1,-7.667056274E-1,1.065484735E0
1.619645446E1,4.415817261E-1,7.047344971E-1,-2.143542480E-1,8.588322746E-1
1.620638446E1,3.484753418E-1,4.077520752E-1,2.185455322E-1,5.791881977E-1
1.621631546E1,1.499880981E-1,-1.113684082E-1,7.168592834E-1,7.408013122E-1
1.622624546E1,-1.359173584E-1,-4.580474854E-1,1.318907318E0,1.402782072E0
1.623617546E1,-4.613406372E-1,-4.402345276E-1,1.873504028E0,1.979055069E0
1.624610546E1,-7.515870667E-1,-1.904040527E-1,2.081571350E0,2.221278035E0
1.625603546E1,-9.219328308E-1,1.860630798E-1,1.803749084E0,2.034229676E0
1.626596646E1,-9.883946228E-1,5.331912231E-1,1.350192261E0,1.756199292E0
1.627589646E1,-9.439370728E-1,7.834707642E-1,9.391470337E-1,1.544940383E0
1.628582646E1,-6.560856628E-1,9.487271118E-1,6.204597473E-1,1.309771670E0
1.629575646E1,-1.070274353E-1,1.046024780E0,4.864883423E-1,1.158573960E0
1.630568646E1,6.143225098E-1,1.066232758E0,5.282514954E-1,1.339139306E0
1.631561646E1,1.325044556E0,1.136586456E0,6.138734436E-1,1.850516807E0
1.632554746E1,1.931283875E0,1.067430267E0,6.292913818E-1,2.294618143E0
1.633547746E1,2.539169769E0,9.488768005E-1,4.044589233E-1,2.740681908E0
1.634540746E1,3.141367493E0,1.405427399E0,-2.999761963E-1,3.454475592E0
1.635533746E1,1.847158813E0,4.296515350E0,-7.610174561E-1,4.738268397E0
1.636526746E1,-1.003962250E0,1.004650818E1,4.290078735E-1,1.010565755E1
