"Time (s)","Acceleration x (m/s^2)","Acceleration y (m/s^2)","Acceleration z (m/s^2)","Absolute acceleration (m/s^2)"
3.578208329E-3,4.334087219E0,8.740773468E0,1.996847534E-1,9.758345497E0
1.350820833E-2,4.523293762E0,8.718469849E0,1.175056458E-1,9.822714011E0
2.343920832E-2,4.430935822E0,8.836873627E0,1.781295776E-2,9.885537165E0
3.336920832E-2,4.517904968E0,8.834478607E0,-1.384620667E-1,9.923640930E0
4.330020833E-2,4.614454193E0,8.893755341E0,-2.398013306E-1,1.002245360E1
5.323020833E-2,4.656217346E0,8.940009155E0,-4.490661621E-3,1.007988809E1
6.316020833E-2,4.562961273E0,8.923842773E0,8.547225952E-2,1.002311782E1
7.309120832E-2,4.338727570E0,8.882079620E0,5.628295898E-2,9.885295295E0
8.302120832E-2,4.435725861E0,8.894054718E0,1.130149841E-1,9.939448960E0
9.295220833E-2,4.537813568E0,8.844058685E0,5.628295898E-2,9.940437303E0
1.028822083E-1,4.418212280E0,8.914711761E0,1.582209778E-1,9.950764766E0
1.128132083E-1,4.283941498E0,8.821306000E0,4.041595459E-2,9.806591036E0
1.227432083E-1,4.144281921E0,8.718320160E0,7.244934082E-2,9.653467147E0
1.326732083E-1,4.196223907E0,8.735085297E0,2.278262329E-1,9.693395433E0
1.426042083E-1,4.091591492E0,8.704099731E0,2.460882568E-1,9.620968376E0
1.525342083E-1,4.055366821E0,8.607400818E0,1.737886047E-1,9.516488395E0
1.624652083E-1,4.111949158E0,8.529712372E0,8.741821289E-2,9.469517462E0
1.723952083E-1,3.914360046E0,8.553213501E0,-4.191284180E-3,9.406364512E0
1.823262083E-1,3.982318726E0,8.679550781E0,1.890568542E-1,9.551398154E0
1.922562083E-1,4.053420868E0,8.798852692E0,2.426454163E-1,9.690660773E0
2.021862083E-1,4.183650055E0,8.871302032E0,6.975494385E-2,9.808557146E0
2.121172083E-1,4.436174927E0,8.853489075E0,1.190025330E-1,9.903437705E0
2.220472083E-1,4.171375580E0,9.062155151E0,3.779640198E-1,9.983280373E0
2.319782083E-1,3.899540863E0,8.967102814E0,2.933898926E-1,9.782710741E0
2.419082083E-1,3.842659149E0,8.741671600E0,6.646179199E-2,9.549202526E0
2.518382083E-1,3.509452057E0,8.634045410E0,-3.448828125E-1,9.326410780E0
2.617692083E-1,3.512296143E0,8.725505219E0,2.634521484E-1,9.409573452E0
2.716992083E-1,3.486250305E0,8.823401642E0,5.902226257E-1,9.505510006E0
2.816302083E-1,3.331023102E0,9.009614410E0,4.737648010E-1,9.617344738E0
2.915602083E-1,3.240162048E0,9.276509399E0,6.418652344E-1,9.847043603E0
3.014912083E-1,3.221450958E0,9.483379211E0,9.568103027E-1,1.006119841E1
3.114212083E-1,2.883453827E0,9.410780182E0,6.804849243E-1,9.866111156E0
3.213512083E-1,3.030897217E0,9.360185394E0,4.830455017E-1,9.850519860E0
3.312822083E-1,3.364703064E0,9.263187103E0,6.249504089E-1,9.875141773E0
3.412122083E-1,3.551963654E0,9.211095428E0,7.503895569E-1,9.900697414E0
3.511432083E-1,4.276157684E0,8.962462463E0,9.385482788E-1,9.974574217E0
3.610732083E-1,7.170389099E0,7.979007568E0,6.619235229E-1,1.074789209E1
3.710042083E-1,4.935835876E0,8.317902832E0,-1.701212311E0,9.820596043E0
3.809342083E-1,1.810634766E0,9.153614960E0,-2.320773926E0,9.615251255E0
3.908642083E-1,1.891766052E0,9.478140106E0,-6.038442993E-1,9.683932394E0
4.007952083E-1,2.599194946E0,9.735754395E0,1.439556427E0,1.017904960E1
4.107252083E-1,3.494034119E0,9.628427582E0,2.016756134E0,1.043945389E1
4.206562083E-1,3.374732208E0,9.719737701E0,1.479373627E0,1.039474217E1
4.305862083E-1,2.910248108E0,9.673334198E0,7.207511902E-1,1.012731064E1
4.405162083E-1,2.574945374E0,9.410031738E0,2.544708252E-1,9.759292822E0
4.504472083E-1,2.219584351E0,9.193282471E0,4.805007935E-1,9.469629258E0
4.603772083E-1,2.084714813E0,8.745563507E0,7.909552002E-1,9.025326977E0
4.703082083E-1,2.524799652E0,8.216264191E0,5.710624695E-1,8.614390453E0
4.802382083E-1,2.727478180E0,7.403903503E0,4.924758911E-1,7.905659796E0
4.901692083E-1,5.446274414E0,5.064268799E0,4.008663940E-1,7.447779355E0
5.000992083E-1,6.687193909E0,4.503085785E0,-1.630858612E0,8.225329402E0
5.100292083E-1,3.576961670E0,5.521717529E0,-6.137237549E-2,6.579345395E0
5.199602083E-1,5.393134918E0,2.569257202E0,2.405797119E0,6.440096785E0
5.298902083E-1,5.713169403E0,2.740351410E0,3.074306946E0,7.042811489E0
5.398212083E-1,2.197280731E0,3.083437958E0,4.521647186E0,5.897535547E0
5.497512083E-1,-6.961872711E0,9.645791473E0,2.550695801E-1,1.189848836E1
5.596822083E-1,-8.470585327E0,9.612410889E0,-3.192411346E0,1.320381570E1
5.696122083E-1,-1.552571411E0,4.871020660E0,-1.918111267E0,5.460446053E0
5.795422083E-1,2.954106903E0,3.156635742E0,1.780397644E0,4.675565482E0
5.894732083E-1,1.640588379E0,7.543862457E0,3.259771271E0,8.380184947E0
5.994032083E-1,3.155138855E0,7.588170319E0,2.412084045E0,8.564658745E0
6.093342083E-1,1.303639069E0,6.055058441E0,6.191125488E-1,6.224669300E0
6.192642083E-1,-1.794468384E0,1.932780762E0,-2.047891388E0,3.339104280E0
6.291952083E-1,-5.314548340E0,-1.700014801E0,-8.994795227E-1,5.651861445E0
6.391252083E-1,-7.416177979E0,-2.417921906E0,-1.448537750E0,7.933744624E0
6.490552083E-1,-5.281317444E0,7.107220459E-1,-5.142256622E0,7.405419835E0
6.589862083E-1,-7.592211914E-1,6.214177551E0,-4.239933014E0,7.561048302E0
6.689162083E-1,5.884263611E-1,1.188588318E1,-2.918780365E0,1.225315238E1
6.788472083E-1,1.537452850E0,1.680330734E1,-2.330503693E0,1.703367683E1
6.887772083E-1,3.252885590E0,1.717393661E1,-7.234455872E-1,1.749424868E1
6.987085000E-1,4.995112610E0,1.797641785E1,-1.170865173E0,1.869421498E1
7.086385000E-1,1.449196381E1,3.671520035E1,-1.772913208E0,3.951159542E1
7.185685000E-1,8.111631775E0,2.170576263E1,1.549727325E0,2.322370247E1
7.284995000E-1,-6.854246521E-1,1.577255081E1,-2.896476746E-1,1.579009379E1
7.384295000E-1,-6.990463257E-2,2.063728455E1,-1.854493561E0,2.072055855E1
7.483605000E-1,1.486408997E-1,1.341615097E1,-1.773811340E0,1.353372113E1
7.582905000E-1,-5.538482666E-2,1.315524353E1,-9.397457886E-1,1.318888251E1
7.682205000E-1,-1.272803192E0,1.439182205E1,-1.305884399E0,1.450689160E1
7.781515000E-1,-2.450703735E0,1.318533096E1,-2.066901855E0,1.356948727E1
7.880815000E-1,-2.564616852E0,1.324430832E1,-2.304158478E0,1.368568993E1
7.980125000E-1,-8.767268372E-1,1.237207214E1,-2.144141235E0,1.258706323E1
8.079425000E-1,-1.037342834E0,1.240111176E1,-2.438279572E0,1.268104334E1
8.178735000E-1,-7.735913086E-1,1.306767563E1,-2.556533661E0,1.333785793E1
8.278035000E-1,-4.725672913E-1,1.288640259E1,-2.198029175E0,1.308105591E1
8.377335000E-1,1.541793823E-2,1.246607666E1,-1.717378693E0,1.258382671E1
8.476645000E-1,5.837860107E-3,1.173514664E1,-1.175505524E0,1.179387612E1
8.575945000E-1,-2.948867798E-1,1.094718521E1,-3.716770935E-1,1.095746166E1
8.675255000E-1,-3.644920349E-1,1.028690826E1,4.944218445E-1,1.030523115E1
8.774555000E-1,-3.023712158E-1,9.630523224E0,1.260828094E0,9.717411867E0
8.873865000E-1,-9.199868774E-1,9.105864258E0,1.771416321E0,9.322073563E0
8.973165000E-1,-2.527943115E0,9.014853516E0,1.860630798E0,9.545681079E0
9.072465000E-1,-4.287234650E0,9.105115814E0,1.330583038E0,1.015154994E1
9.171775000E-1,-5.761369171E0,8.712033234E0,4.342469788E-1,1.045377770E1
9.271075000E-1,-5.982609100E0,8.171507263E0,1.380130005E-1,1.012838537E1
9.370385000E-1,-5.736820221E0,7.053482208E0,-6.502478027E-1,9.115126972E0
9.469685000E-1,-4.872966614E0,4.831502838E0,-1.312770081E0,6.986600645E0
9.568995000E-1,-3.587589569E0,2.507735138E0,-1.962568817E0,4.797000188E0
9.668295000E-1,-2.532134399E0,9.095086670E-1,-4.074526978E0,4.882691955E0
9.767595000E-1,-4.763544159E0,-6.174659729E-1,-3.102298737E0,5.718118102E0
9.866905000E-1,-4.312831421E0,-1.484163666E0,-2.071392517E0,5.009383556E0
9.966205000E-1,-3.254532166E0,-1.976938934E0,-6.925947418E0,7.903734232E0
1.006551500E0,-4.874762878E0,-1.754351807E0,-1.367840561E1,1.462668258E1
1.016481500E0,-3.280727692E0,-3.683839417E-1,-1.654733963E1,1.687345044E1
1.026411500E0,-9.101074219E-2,9.675878906E-1,-1.322769287E1,1.326334679E1
1.036342500E0,3.056943054E0,2.357747040E0,-1.063403641E1,1.131311638E1
1.046272500E0,4.169729004E0,6.640341339E0,-1.077968353E1,1.332975432E1
1.056203500E0,5.859115906E0,1.341630066E1,-1.120105728E1,1.843339488E1
1.066133500E0,9.729617157E0,1.991054581E1,-1.057116714E1,2.455289920E1
1.076064500E0,1.237162308E1,2.117182297E1,-7.279661865E0,2.557922247E1
1.085994500E0,1.255708740E1,1.911180679E1,-8.657097473E0,2.445172672E1
1.095924500E0,9.631271667E0,1.785741531E1,-1.054856415E1,2.286746337E1
1.105855500E0,5.750441895E0,1.867471573E1,-1.123084534E1,2.253762358E1
1.115785500E0,2.557880859E0,2.290267365E1,-1.074226135E1,2.542580173E1
1.125716500E0,-1.464404755E0,3.043875229E1,-1.074286011E1,3.231209008E1
1.135646500E0,-5.175487518E0,3.698314316E1,-1.053344559E1,3.880067042E1
1.145577500E0,-7.057224426E0,3.967843826E1,-8.481811981E0,4.118402620E1
1.155507500E0,-7.133415985E0,3.755405594E1,-5.946983185E0,3.868538936E1
1.165437500E0,-5.795049133E0,3.298316116E1,-5.912255402E0,3.400626823E1
1.175368500E0,-4.177812195E0,2.915801559E1,-7.304360504E0,3.034794343E1
1.185298500E0,-2.531835022E0,2.677332458E1,-8.556955719E0,2.822131445E1
1.195229500E0,-1.321601715E0,2.436677902E1,-7.401508484E0,2.550037017E1
1.205159500E0,-5.035528564E-1,1.978675323E1,-4.317172394E0,2.025850800E1
1.215089500E0,-4.445755005E-1,1.457144852E1,-1.622176666E0,1.466820427E1
1.225020500E0,-2.248474274E0,1.006102798E1,1.704954529E-1,1.031062507E1
1.234950500E0,-3.166814575E0,6.474336548E0,1.958527222E0,7.468706526E0
1.244881500E0,-3.611090698E0,3.345692596E0,4.178860016E0,6.457283176E0
1.254811500E0,-4.014801178E0,5.866300964E-1,6.647376709E0,7.787835417E0
1.264742500E0,-2.726430359E0,-2.824925537E0,5.922434235E0,7.105550933E0
1.274672500E0,-3.691772919E0,-7.396718445E0,3.851041718E0,9.119822002E0
1.284602500E0,-4.897964630E0,-1.167676804E1,2.627486115E0,1.293215576E1
1.294533500E0,-3.789220276E0,-1.202389618E1,6.803352356E-1,1.262517824E1
1.304463500E0,5.313949585E-1,-7.509134674E0,-1.343755646E0,7.646905478E0
1.314394500E0,7.828720093E-1,-5.755980377E0,-3.220552826E0,6.641999638E0
1.324324500E0,-3.939807129E-1,-4.604425049E0,-4.149071960E0,6.210535320E0
1.334255500E0,3.516188049E-1,-2.795885925E0,-3.647465057E0,4.609188132E0
1.344185500E0,1.263522491E0,-1.466949463E0,-2.487976227E0,3.152531605E0
1.354115500E0,1.811083832E0,-6.791377258E-1,-1.463356934E0,2.425420832E0
1.364046500E0,2.180814972E0,2.992277527E-1,-9.680369568E-1,2.404700967E0
1.373976500E0,2.132615204E0,1.427132263E0,-2.962339783E-1,2.583119950E0
1.383907500E0,1.458716583E0,2.559228058E0,1.327738953E-1,2.948750791E0
1.393837500E0,1.375639343E-1,4.102967834E0,2.782713318E-1,4.114693648E0
1.403768500E0,-3.501219177E-1,5.820645905E0,8.321195984E-1,5.890239989E0
1.413698500E0,-5.929170227E-1,6.506220245E0,1.062041473E0,6.618941348E0
1.423628500E0,-8.497828674E-1,6.685996399E0,1.084345093E0,6.826454647E0
1.433559500E0,-9.626481628E-1,6.407126312E0,1.155297546E0,6.581236319E0
1.443489500E0,-1.055455170E0,5.278772736E0,1.067879333E0,5.488150279E0
1.453420500E0,-8.616082764E-1,3.601211243E0,9.219328308E-1,3.815894572E0
1.463350500E0,-2.161505127E-1,1.660347290E0,8.211923218E-1,1.864894366E0
1.473280500E0,8.128097534E-1,-3.463796997E-1,8.487350464E-1,1.225148877E0
1.483211500E0,1.817520447E0,-2.333647156E0,7.885601807E-1,3.061227986E0
1.493141500E0,2.283351746E0,-4.025728455E0,4.569996643E-1,4.650702471E0
1.503072500E0,2.043700104E0,-5.177732849E0,-1.516346741E-1,5.568538466E0
1.513002500E0,1.967658234E0,-5.970035248E0,-7.551795959E-1,6.331137023E0
1.522933500E0,2.016007690E0,-6.309529266E0,-9.503736877E-1,6.691610921E0
1.532863500E0,1.452729034E0,-5.751938782E0,-8.053253174E-1,5.986966700E0
1.542793500E0,7.902067566E-1,-4.777614899E0,-6.007008362E-1,4.879638545E0
1.552724500E0,2.860551453E-1,-3.593427429E0,-5.929170227E-1,3.653231286E0
1.562654500E0,1.092727661E-2,-2.390379181E0,-7.795788574E-1,2.514314067E0
1.572585500E0,-8.098159790E-2,-1.324296112E0,-8.732839966E-1,1.588377521E0
1.582515500E0,-2.095642090E-3,-3.140469360E-1,-8.644523621E-1,9.197324372E-1
1.592446500E0,2.592608643E-1,5.294490051E-1,-8.583151245E-1,1.041267160E0
1.602376500E0,5.938151550E-1,9.569599915E-1,-1.003064117E0,1.508153337E0
1.612306500E0,4.044589233E-1,1.747765503E0,-1.289418640E0,2.209269495E0
1.622237500E0,6.057902527E-1,2.408790894E0,-1.276994476E0,2.792842690E0
1.632167500E0,5.029541016E-1,2.972069550E0,-1.285975800E0,3.277177748E0
1.642098500E0,-7.668553162E-1,3.996389465E0,-6.548881531E-1,4.121659172E0
1.652028500E0,-2.145638123E0,6.615343323E0,-9.840536499E-1,7.023880111E0
1.661958500E0,-3.642824707E0,1.574246338E1,-1.595083008E0,1.623698294E1
1.671889500E0,-8.777297516E0,3.562082611E1,-8.120762787E0,3.757433955E1
1.681819500E0,-6.868616638E0,6.720215240E1,-1.177451477E1,6.857073997E1
1.691750500E0,-1.459914093E0,6.695711197E1,8.380472717E0,6.749532217E1
1.701680208E0,-2.221679993E0,2.515518951E1,-1.040336609E0,2.527452713E1
1.711611208E0,5.415737915E-1,1.340163116E1,-1.106948090E1,1.739052694E1
1.721541208E0,3.082390137E0,1.866603378E1,-9.804760895E0,2.130857298E1
1.731471208E0,2.981799316E0,2.452694595E1,-7.351811829E0,2.577811751E1
1.741402208E0,1.085243225E-1,2.531580551E1,-8.020920410E0,2.655629775E1
1.751332208E0,-9.407936096E-1,2.027563660E1,-1.105720642E1,2.311381288E1
1.761263208E0,-2.004331970E-1,1.450438797E1,-9.914632416E0,1.757035514E1
1.771193208E0,-1.415606232E0,1.150268005E1,-6.930587769E0,1.350365270E1
1.781124208E0,-2.930456085E0,1.152633087E1,-4.808001709E0,1.282812366E1
1.791054208E0,-3.767365723E0,1.366867584E1,-4.028273163E0,1.473949553E1
1.800984208E0,-2.690505066E0,1.588556580E1,-4.416865082E0,1.670624779E1
1.810915208E0,-8.759783936E-1,1.714399887E1,-4.480033722E0,1.774132852E1
1.820845208E0,2.918930054E-1,1.652698196E1,-4.175566864E0,1.704880327E1
1.830776208E0,7.764353943E-1,1.500809052E1,-3.632795563E0,1.546101020E1
1.840706208E0,7.948471069E-1,1.316078201E1,-2.989283752E0,1.351938543E1
1.850637208E0,5.023553467E-1,1.127485382E1,-2.639161835E0,1.159050753E1
1.860567208E0,2.466870117E-1,9.805659027E0,-2.565215607E0,1.013864560E1
1.870497208E0,-1.387614441E-1,8.763675842E0,-2.661465454E0,9.159949092E0
1.880428208E0,-5.532495117E-1,7.926616516E0,-2.896925812E0,8.457512257E0
1.890358208E0,-8.961863708E-1,7.092550964E0,-2.973716125E0,7.742765448E0
1.900289208E0,-1.302740936E0,6.374194794E0,-2.794838104E0,7.080862465E0
1.910219208E0,-1.683698730E0,5.790708160E0,-2.506986694E0,6.530859415E0
1.920149208E0,-1.915865936E0,5.410798187E0,-2.180365906E0,6.140136382E0
1.930080208E0,-2.037413177E0,5.355862427E0,-1.884580994E0,6.032243390E0
1.940010208E0,-2.040107574E0,5.711373138E0,-1.643432465E0,6.283525468E0
1.949941208E0,-2.045047302E0,6.195017395E0,-1.383423157E0,6.668906854E0
1.959871208E0,-1.797611847E0,6.714287567E0,-1.178050232E0,7.049884271E0
1.969802208E0,-1.385219421E0,7.218738556E0,-1.140328674E0,7.438371372E0
1.979732208E0,-9.967771912E-1,7.594606934E0,-1.314566345E0,7.771724643E0
1.989662208E0,-7.204518127E-1,7.816295929E0,-1.638941803E0,8.018707071E0
1.999593208E0,-5.709127808E-1,7.975115662E0,-1.986219635E0,8.238536257E0
2.009523208E0,-5.297483826E-1,8.117769012E0,-2.272424469E0,8.446461985E0
2.019454208E0,-5.833369446E-1,8.242759094E0,-2.460134125E0,8.621810679E0
2.029384208E0,-6.483018494E-1,8.393345947E0,-2.430795135E0,8.762266629E0
2.039315208E0,-8.062234497E-1,8.588989105E0,-2.320624237E0,8.933421906E0
2.049245208E0,-1.025816803E0,8.850345612E0,-2.177222443E0,9.171761833E0
2.059175208E0,-1.288819885E0,9.131161652E0,-2.042502594E0,9.445156783E0
2.069106208E0,-1.513203278E0,9.414372711E0,-1.949096832E0,9.732377724E0
2.079036208E0,-1.618434448E0,9.750573578E0,-1.840722198E0,1.005391831E1
2.088967208E0,-1.558708649E0,1.010488678E1,-1.726958771E0,1.036921868E1
2.098897208E0,-1.365909576E0,1.039902512E1,-1.684297485E0,1.062272518E1
2.108827208E0,-1.128952332E0,1.039887543E1,-1.733545074E0,1.060265637E1
2.118758208E0,-9.220825195E-1,1.021041733E1,-1.823058929E0,1.041279991E1
2.128688208E0,-8.505313110E-1,1.007030869E1,-1.867067413E0,1.027718158E1
2.138619208E0,-9.084608459E-1,9.899962921E0,-1.908830566E0,1.012315174E1
2.148549208E0,-1.045725403E0,9.687255249E0,-1.973346405E0,9.941355638E0
2.158480208E0,-1.224603424E0,9.399553528E0,-2.000440063E0,9.687776861E0
2.168410208E0,-1.359922028E0,9.134604492E0,-1.995200958E0,9.448344512E0
2.178340208E0,-1.469943237E0,8.888965302E0,-1.991758118E0,9.227217221E0
2.188271208E0,-1.566342773E0,8.731343079E0,-2.062860260E0,9.107424120E0
2.198201208E0,-1.607058105E0,8.548722839E0,-2.180814972E0,8.967678177E0
2.208132208E0,-1.596280518E0,8.335416412E0,-2.249222717E0,8.779879332E0
2.218062208E0,-1.566193085E0,8.154442749E0,-2.200723572E0,8.590173547E0
2.227993208E0,-1.534309387E0,8.023315430E0,-2.073637848E0,8.427791508E0
2.237923208E0,-1.518891449E0,8.000862122E0,-1.884431305E0,8.358941755E0
2.247853208E0,-1.635349274E0,8.062234497E0,-1.685045929E0,8.397224072E0
2.257784208E0,-1.769170990E0,8.228089600E0,-1.528022461E0,8.553728841E0
2.267714208E0,-1.936073914E0,8.468938751E0,-1.389560394E0,8.797851093E0
2.277645208E0,-2.139650574E0,8.815318451E0,-1.371597748E0,9.174378690E0
2.287575208E0,-2.314337311E0,9.201964417E0,-1.484013977E0,9.603884828E0
2.297505208E0,-2.472707977E0,9.509275360E0,-1.606908417E0,9.956041245E0
2.307436208E0,-2.588567047E0,9.704619141E0,-1.692979431E0,1.018560216E1
2.317366208E0,-2.606978760E0,9.838590546E0,-1.672322388E0,1.031459473E1
2.327297208E0,-2.496209106E0,9.984986115E0,-1.633553009E0,1.042110853E1
2.337227208E0,-2.282603302E0,1.005578888E1,-1.584904175E0,1.043269328E1
2.347158208E0,-1.989063721E0,1.001552261E1,-1.491348724E0,1.031945680E1
2.357088208E0,-1.748813324E0,9.903854828E0,-1.386865997E0,1.015224536E1
2.367018208E0,-1.530267792E0,9.852062531E0,-1.399140472E0,1.006789202E1
2.376949208E0,-1.333427124E0,9.846524048E0,-1.574126587E0,1.006031502E1
2.386879208E0,-1.197809143E0,9.786947937E0,-1.758842468E0,1.001561898E1
2.396810208E0,-1.102457428E0,9.716444550E0,-1.893262939E0,9.960379090E0
2.406740208E0,-1.087338867E0,9.688003693E0,-1.937870178E0,9.939570523E0
2.416671208E0,-1.083446960E0,9.686806183E0,-1.902843018E0,9.931207524E0
2.426601208E0,-1.108145599E0,9.661658478E0,-1.841470642E0,9.897810128E0
2.436531208E0,-1.135388947E0,9.659862213E0,-1.837578735E0,9.898421169E0
2.446462208E0,-1.140777740E0,9.669741669E0,-1.829196167E0,9.907130584E0
2.456392208E0,-1.128353577E0,9.680070190E0,-1.861229553E0,9.921749651E0
2.466323208E0,-1.126856689E0,9.664053497E0,-1.893262939E0,9.912022022E0
2.476253208E0,-1.093476105E0,9.603279877E0,-1.942959595E0,9.858689891E0
2.486183208E0,-9.963281250E-1,9.508826294E0,-1.971550140E0,9.762041650E0
2.496114208E0,-8.807684326E-1,9.440418549E0,-2.016606445E0,9.693500759E0
2.506044208E0,-7.816744995E-1,9.455836487E0,-2.111359406E0,9.720169609E0
2.515975208E0,-7.101232910E-1,9.486522675E0,-2.157164154E0,9.754575579E0
2.525905208E0,-6.261479187E-1,9.566606140E0,-2.162253571E0,9.827886587E0
2.535836208E0,-5.810916138E-1,9.693691864E0,-2.192790070E0,9.955584247E0
2.545766208E0,-5.737568665E-1,9.789492645E0,-2.195185089E0,1.004899004E1
2.555696208E0,-5.842350769E-1,9.859247589E0,-2.197280731E0,1.011801049E1
2.565627208E0,-6.015989685E-1,9.878108368E0,-2.180964661E0,1.013388144E1
2.575557208E0,-5.737568665E-1,9.834998016E0,-2.104174347E0,1.007392340E1
2.585488208E0,-4.791535950E-1,9.719737701E0,-2.002236328E0,9.935383207E0
2.595418208E0,-4.167333984E-1,9.578431549E0,-1.904639282E0,9.774848769E0
2.605349208E0,-3.808081055E-1,9.417366486E0,-1.800755310E0,9.595547198E0
2.615279208E0,-4.070036316E-1,9.328750763E0,-1.753303986E0,9.500806156E0
2.625209208E0,-4.650828552E-1,9.282796326E0,-1.711989899E0,9.450794628E0
2.635140208E0,-5.704637146E-1,9.242080994E0,-1.630858612E0,9.402190689E0
2.645070208E0,-7.288343811E-1,9.274413757E0,-1.646426239E0,9.447574792E0
2.655001208E0,-8.985813904E-1,9.358538818E0,-1.714534607E0,9.556637811E0
2.664931208E0,-1.075214081E0,9.452393646E0,-1.794917450E0,9.681196187E0
2.674861208E0,-1.222956848E0,9.520352325E0,-1.804946594E0,9.766809308E0
2.684792208E0,-1.376238098E0,9.582323456E0,-1.780996399E0,9.843114461E0
2.694722333E0,-1.507515106E0,9.636660461E0,-1.738484802E0,9.907580737E0
2.704653333E0,-1.566791840E0,9.677375793E0,-1.712438965E0,9.951828281E0
2.714583333E0,-1.519041138E0,9.727820892E0,-1.785936127E0,1.000637562E1
2.724514333E0,-1.553170166E0,9.725276184E0,-1.828896790E0,1.001689562E1
2.734444333E0,-1.562151489E0,9.708361359E0,-1.812730408E0,9.998929397E0
2.744374333E0,-1.573228455E0,9.703870697E0,-1.720821533E0,9.980049149E0
2.754305333E0,-1.632954254E0,9.688303070E0,-1.627864838E0,9.958900537E0
2.764235333E0,-1.642384644E0,9.646090851E0,-1.597627716E0,9.914479832E0
2.774166333E0,-1.611997833E0,9.631571045E0,-1.578317871E0,9.892258848E0
2.784096333E0,-1.636846161E0,9.611961823E0,-1.611848145E0,9.882668156E0
2.794027333E0,-1.633103943E0,9.571994934E0,-1.614392853E0,9.843595877E0
2.803957333E0,-1.631906433E0,9.596543884E0,-1.593137054E0,9.863815631E0
2.813887333E0,-1.667532349E0,9.655970306E0,-1.594334564E0,9.927755506E0
2.823818333E0,-1.588347015E0,9.703271942E0,-1.627864838E0,9.966256898E0
2.833748333E0,-1.584754486E0,9.716594238E0,-1.636696472E0,9.980101488E0
2.843679333E0,-1.528321838E0,9.715995483E0,-1.716779938E0,9.984170934E0
2.853609333E0,-1.426234131E0,9.681567078E0,-1.801204376E0,9.950438286E0
2.863539333E0,-1.259031830E0,9.681417389E0,-1.879341888E0,9.942179326E0
2.873470333E0,-1.050515442E0,9.766141205E0,-1.965113525E0,1.001712373E1
2.883400333E0,-9.090596008E-1,9.898166656E0,-1.999092865E0,1.013885915E1
2.893331333E0,-8.174501038E-1,1.003109024E1,-1.980830841E0,1.025742107E1
2.903261333E0,-7.773335266E-1,1.009141479E1,-1.917063446E0,1.030126362E1
2.913192333E0,-7.827223206E-1,1.005429199E1,-1.858086090E0,1.025445882E1
2.923122333E0,-8.521778870E-1,9.924661560E0,-1.807042236E0,1.012375997E1
2.933052333E0,-9.394464111E-1,9.716145172E0,-1.803000641E0,9.926572816E0
2.942983333E0,-1.024020538E0,9.540709991E0,-1.797611847E0,9.762436866E0
2.952913333E0,-1.111139374E0,9.406439209E0,-1.833088074E0,9.647587325E0
2.962844333E0,-1.236279144E0,9.299711151E0,-1.863474884E0,9.564808010E0
2.972774333E0,-1.323996735E0,9.252858582E0,-1.907483368E0,9.539751154E0
2.982704333E0,-1.406175842E0,9.244326324E0,-1.948348389E0,9.551489996E0
2.992635333E0,-1.499132538E0,9.286987610E0,-1.965263214E0,9.610296392E0
3.002565333E0,-1.556762695E0,9.333540802E0,-1.981429596E0,9.667706927E0
3.012496333E0,-1.581760712E0,9.390272827E0,-1.972148895E0,9.724636856E0
3.022426333E0,-1.569186859E0,9.431886292E0,-1.949994965E0,9.758345494E0
3.032357333E0,-1.530118103E0,9.452094269E0,-1.907333679E0,9.763261199E0
3.042287333E0,-1.480571136E0,9.470206604E0,-1.853595428E0,9.762823363E0
3.052217333E0,-1.432221680E0,9.514963531E0,-1.782193909E0,9.785806307E0
3.062148333E0,-1.426533508E0,9.574090576E0,-1.723665619E0,9.832051229E0
3.072078333E0,-1.441352692E0,9.652377777E0,-1.660646667E0,9.899678868E0
3.082009333E0,-1.496288452E0,9.694889374E0,-1.624272308E0,9.943239896E0
3.091939333E0,-1.547481995E0,9.689650269E0,-1.630559235E0,9.946996847E0
3.101870333E0,-1.546284485E0,9.639953613E0,-1.669029236E0,9.904814989E0
3.111800333E0,-1.492995300E0,9.559870148E0,-1.709594879E0,9.825622976E0
3.121730333E0,-1.437011719E0,9.495803375E0,-1.700763245E0,9.753352246E0
3.131661333E0,-1.386566620E0,9.460925903E0,-1.683549042E0,9.709069127E0
3.141591333E0,-1.379680939E0,9.460626526E0,-1.692530365E0,9.709358001E0
3.151522333E0,-1.402283936E0,9.468410339E0,-1.687740326E0,9.719344731E0
3.161452333E0,-1.451980591E0,9.441915436E0,-1.643282776E0,9.693213761E0
3.171382333E0,-1.520088959E0,9.441466370E0,-1.668280792E0,9.707477451E0
3.181313333E0,-1.575473785E0,9.473948822E0,-1.722468109E0,9.757290624E0
3.191243333E0,-1.593286743E0,9.529932404E0,-1.774559784E0,9.823809683E0
3.201174333E0,-1.606459351E0,9.599986725E0,-1.839973755E0,9.905854844E0
3.211104333E0,-1.591939545E0,9.699978790E0,-1.916464691E0,1.001482386E1
3.221035333E0,-1.558558960E0,9.778415680E0,-1.944007416E0,1.009087132E1
3.230965333E0,-1.521436157E0,9.834399261E0,-1.945953369E0,1.013986742E1
3.240895333E0,-1.477577362E0,9.818681946E0,-1.942061462E0,1.011737875E1
3.250826333E0,-1.428030396E0,9.762398987E0,-1.914818115E0,1.005038473E1
3.260756333E0,-1.343306580E0,9.652527466E0,-1.882036285E0,9.925614320E0
3.270687333E0,-1.289119263E0,9.510622559E0,-1.879192200E0,9.779832987E0
3.280617333E0,-1.239422607E0,9.389524384E0,-1.873054962E0,9.654412019E0
3.290548333E0,-1.215472412E0,9.313781891E0,-1.850451965E0,9.573300307E0
3.300478333E0,-1.235381012E0,9.318721619E0,-1.826352081E0,9.576027401E0
3.310408333E0,-1.299447784E0,9.376202087E0,-1.831740875E0,9.641421304E0
3.320339333E0,-1.344953156E0,9.451645203E0,-1.864223328E0,9.727169405E0
3.330269333E0,-1.402433624E0,9.524543610E0,-1.900298309E0,9.812995705E0
3.340200333E0,-1.451082458E0,9.577383728E0,-1.913021851E0,9.873782050E0
3.350130333E0,-1.479673004E0,9.613608398E0,-1.918560333E0,9.914220715E0
3.360060333E0,-1.473386078E0,9.617051239E0,-1.886077881E0,9.910390045E0
3.369991333E0,-1.435664520E0,9.604627075E0,-1.852397919E0,9.886423616E0
3.379921333E0,-1.393901367E0,9.574090576E0,-1.822609863E0,9.845205843E0
3.389852333E0,-1.353335724E0,9.568701782E0,-1.796414337E0,9.829479938E0
3.399782333E0,-1.349144440E0,9.588311005E0,-1.749861145E0,9.839609376E0
3.409713333E0,-1.381327515E0,9.601483612E0,-1.710792389E0,9.850043850E0
3.419643333E0,-1.452579346E0,9.615254974E0,-1.693278809E0,9.870679212E0
3.429573333E0,-1.543440399E0,9.574389954E0,-1.669029236E0,9.840569589E0
3.439504333E0,-1.609602814E0,9.492659912E0,-1.650617523E0,9.768620764E0
3.449434333E0,-1.670376434E0,9.413474579E0,-1.642833710E0,9.700647591E0
3.459365333E0,-1.704954529E0,9.365424500E0,-1.628613281E0,9.657661581E0
3.469295333E0,-1.724863129E0,9.339079285E0,-1.595083008E0,9.630049039E0
3.479225333E0,-1.737287292E0,9.343569946E0,-1.585053864E0,9.634981174E0
3.489156333E0,-1.717528381E0,9.368867340E0,-1.600471802E0,9.658524161E0
3.499086333E0,-1.664538574E0,9.439670105E0,-1.622775421E0,9.721700490E0
3.509017333E0,-1.618434448E0,9.532926178E0,-1.654359741E0,9.809837804E0
3.518947333E0,-1.548080750E0,9.624086609E0,-1.697170715E0,9.894442152E0
3.528878333E0,-1.484313354E0,9.700727234E0,-1.691482544E0,9.958333605E0
3.538808333E0,-1.418001251E0,9.757608948E0,-1.682351532E0,1.000259799E1
3.548738333E0,-1.375489655E0,9.797575836E0,-1.670975189E0,1.003377407E1
3.558669333E0,-1.354982300E0,9.811047821E0,-1.653311920E0,1.004121888E1
3.568599333E0,-1.344653778E0,9.800868988E0,-1.637744293E0,1.002732931E1
3.578530333E0,-1.359772339E0,9.811796265E0,-1.648072815E0,1.004173644E1
3.588460333E0,-1.355880432E0,9.814490662E0,-1.654060364E0,1.004482724E1
3.598390333E0,-1.377285919E0,9.798623657E0,-1.692530365E0,1.003865534E1
3.608321333E0,-1.412762146E0,9.751771088E0,-1.732497253E0,1.000472303E1
3.618251333E0,-1.404828644E0,9.683513031E0,-1.781445465E0,9.945728535E0
3.628182333E0,-1.378782806E0,9.601034546E0,-1.814077606E0,9.867714221E0
3.638112333E0,-1.346749420E0,9.533375244E0,-1.819915466E0,9.798523861E0
3.648043333E0,-1.309476929E0,9.502988434E0,-1.824406128E0,9.764731267E0
3.657973333E0,-1.288670197E0,9.484127655E0,-1.816622314E0,9.742148884E0
3.667903333E0,-1.304537201E0,9.491312714E0,-1.811083832E0,9.750223535E0
3.677834333E0,-1.350791016E0,9.512568512E0,-1.811233521E0,9.777226750E0
3.687764333E0,-1.397344208E0,9.528734894E0,-1.833836517E0,9.803688892E0
3.697695083E0,-1.418600006E0,9.506730652E0,-1.832788696E0,9.785165715E0
3.707625083E0,-1.411265259E0,9.481732635E0,-1.848206635E0,9.762724577E0
3.717556083E0,-1.382974091E0,9.464069366E0,-1.855990448E0,9.742993731E0
3.727486083E0,-1.341959381E0,9.468560028E0,-1.849104767E0,9.740311721E0
3.737416083E0,-1.286873932E0,9.466763763E0,-1.828298035E0,9.727195607E0
3.747347083E0,-1.248403931E0,9.463171234E0,-1.783990173E0,9.710445053E0
3.757277083E0,-1.235530701E0,9.489366760E0,-1.751208344E0,9.728378502E0
3.767208083E0,-1.286873932E0,9.521549835E0,-1.724264374E0,9.761610698E0
3.777138083E0,-1.362317047E0,9.535620575E0,-1.693877563E0,9.780244817E0
3.787068083E0,-1.454974365E0,9.529932404E0,-1.681752777E0,9.785951892E0
3.796999083E0,-1.569635925E0,9.535620575E0,-1.680854645E0,9.809030993E0
3.806929083E0,-1.684896240E0,9.570797424E0,-1.694176941E0,9.864546324E0
3.816860083E0,-1.747166748E0,9.574090576E0,-1.720671844E0,9.883142901E0
3.826790083E0,-1.785037994E0,9.571246490E0,-1.732048187E0,9.889141062E0
3.836721083E0,-1.801204376E0,9.592053223E0,-1.741478577E0,9.913857466E0
3.846651083E0,-1.772763519E0,9.616153107E0,-1.742227020E0,9.932192409E0
3.856581083E0,-1.738185425E0,9.608369293E0,-1.742077332E0,9.918512110E0
3.866512083E0,-1.699416046E0,9.563762054E0,-1.736538849E0,9.867579577E0
3.876442083E0,-1.613045654E0,9.547745361E0,-1.764231262E0,9.842452424E0
3.886373083E0,-1.557660828E0,9.517208862E0,-1.763782196E0,9.803800254E0
3.896303083E0,-1.493444366E0,9.539063416E0,-1.758692780E0,9.814127940E0
3.906233083E0,-1.472787323E0,9.570348358E0,-1.760489044E0,9.841747399E0
3.916164083E0,-1.483714600E0,9.548194427E0,-1.753004608E0,9.820511748E0
3.926094083E0,-1.491947479E0,9.555229797E0,-1.764231262E0,9.830607087E0
3.936025083E0,-1.507365417E0,9.571246490E0,-1.783541107E0,9.852001257E0
3.945955083E0,-1.521735535E0,9.614506531E0,-1.800156555E0,9.899241309E0
3.955886083E0,-1.526226196E0,9.673932953E0,-1.858086090E0,9.968291182E0
3.965816083E0,-1.488504639E0,9.696236572E0,-1.885778503E0,9.989434933E0
3.975746083E0,-1.445543976E0,9.673334198E0,-1.872456207E0,9.958367544E0
3.985677083E0,-1.409169617E0,9.621092834E0,-1.842967529E0,9.896853826E0
3.995607083E0,-1.390907593E0,9.539662170E0,-1.821112976E0,9.811025977E0
4.005538083E0,-1.425186310E0,9.461973724E0,-1.797462158E0,9.736065581E0
4.015468083E0,-1.525028687E0,9.426497498E0,-1.796863403E0,9.716649919E0
4.025398083E0,-1.638492737E0,9.422306213E0,-1.773362274E0,9.726732575E0
4.035329083E0,-1.755549316E0,9.408684540E0,-1.765578461E0,9.732551848E0
4.045259083E0,-1.828298035E0,9.369915161E0,-1.755848694E0,9.706749634E0
4.055190083E0,-1.855541382E0,9.364526367E0,-1.726509705E0,9.701454719E0
4.065120083E0,-1.809586945E0,9.370364227E0,-1.684596863E0,9.691036954E0
4.075051083E0,-1.734742584E0,9.377848663E0,-1.640887756E0,9.677080656E0
4.084981083E0,-1.650018768E0,9.373208313E0,-1.604962463E0,9.651709720E0
4.094911083E0,-1.565444641E0,9.385033722E0,-1.566492462E0,9.642788680E0
4.104842083E0,-1.503922577E0,9.443112946E0,-1.532812500E0,9.684197405E0
4.114772083E0,-1.508413239E0,9.517358551E0,-1.485211487E0,9.749937305E0
4.124703083E0,-1.548230438E0,9.591903534E0,-1.442699890E0,9.822576743E0
4.134633083E0,-1.649719391E0,9.649833069E0,-1.422791290E0,9.892683528E0
4.144564083E0,-1.733245697E0,9.684111786E0,-1.420695648E0,9.940047176E0
4.154494083E0,-1.795216827E0,9.701026611E0,-1.422342224E0,9.967736863E0
4.164424083E0,-1.836081848E0,9.700577545E0,-1.429676971E0,9.975789568E0
4.174355083E0,-1.865121460E0,9.694889374E0,-1.441053314E0,9.977283833E0
4.184285083E0,-1.893262939E0,9.659862213E0,-1.469045105E0,9.952661757E0
4.194216083E0,-1.914219360E0,9.618697815E0,-1.476978607E0,9.917915568E0
4.204146083E0,-1.895957336E0,9.545200653E0,-1.465153198E0,9.841350701E0
4.214076083E0,-1.872156830E0,9.477840729E0,-1.427132263E0,9.765814998E0
4.224007083E0,-1.849703522E0,9.438622284E0,-1.373543701E0,9.715740632E0
4.233937083E0,-1.856888580E0,9.397607574E0,-1.312470703E0,9.668797375E0
4.243868083E0,-1.882635040E0,9.384434967E0,-1.278790741E0,9.656461055E0
4.253798083E0,-1.896556091E0,9.411678314E0,-1.275048523E0,9.685161972E0
4.263729083E0,-1.949845276E0,9.420659637E0,-1.263372803E0,9.702929220E0
4.273659083E0,-1.997296600E0,9.402846680E0,-1.267863464E0,9.695885579E0
4.283589083E0,-1.979034576E0,9.406289520E0,-1.348246307E0,9.706318998E0
4.293520083E0,-1.889820099E0,9.466165009E0,-1.444645844E0,9.760466259E0
4.303450083E0,-1.780098267E0,9.568552094E0,-1.513053589E0,9.849632997E0
4.313381083E0,-1.693727875E0,9.616901550E0,-1.534159698E0,9.884692991E0
4.323311083E0,-1.628463593E0,9.660760345E0,-1.553768921E0,9.919495047E0
4.333241083E0,-1.589544525E0,9.666598206E0,-1.579066315E0,9.922863654E0
4.343172083E0,-1.511556702E0,9.687704315E0,-1.627565460E0,9.939083856E0
4.353102083E0,-1.413510590E0,9.695937195E0,-1.711241455E0,9.946736027E0
4.363033083E0,-1.349144440E0,9.707463226E0,-1.798360291E0,9.964393245E0
4.372963083E0,-1.312919769E0,9.713600464E0,-1.860032043E0,9.976848776E0
4.382894083E0,-1.272354126E0,9.668394470E0,-1.877695312E0,9.930884973E0
4.392824083E0,-1.236578522E0,9.566306763E0,-1.865570526E0,9.824647826E0
4.402754083E0,-1.206491089E0,9.494306488E0,-1.871707764E0,9.751962181E0
4.412685083E0,-1.147364044E0,9.440418549E0,-1.869163055E0,9.691837656E0
4.422615083E0,-1.118174744E0,9.410181427E0,-1.880838776E0,9.661230964E0
4.432546083E0,-1.099763031E0,9.374106445E0,-1.876348114E0,9.623098909E0
4.442476083E0,-1.086590424E0,9.371861115E0,-1.885479126E0,9.621200083E0
4.452407083E0,-1.097966766E0,9.408385162E0,-1.896705780E0,9.660265793E0
4.462337083E0,-1.134041748E0,9.467212830E0,-1.867965546E0,9.716144540E0
4.472267083E0,-1.221909027E0,9.504934387E0,-1.873204651E0,9.764514071E0
4.482198083E0,-1.337319031E0,9.536818085E0,-1.887874146E0,9.813429072E0
4.492128083E0,-1.443747711E0,9.595645752E0,-1.896705780E0,9.887280600E0
4.502059083E0,-1.574425964E0,9.758507080E0,-1.902693329E0,1.006615713E1
4.511989083E0,-1.705104218E0,9.996661835E0,-1.976789246E0,1.033190805E1
4.521919083E0,-1.758243713E0,1.020742355E1,-2.126028900E0,1.057368977E1
4.531850083E0,-1.746567993E0,1.034648438E1,-2.237696686E0,1.072881751E1
4.541780083E0,-1.678609314E0,1.040411453E1,-2.270328827E0,1.078043234E1
4.551711083E0,-1.501078491E0,1.039273819E1,-2.240989838E0,1.073705170E1
4.561641083E0,-1.244961090E0,1.033840118E1,-2.169288940E0,1.063664805E1
4.571572083E0,-9.630972290E-1,1.019260437E1,-2.053729248E0,1.044196073E1
4.581502083E0,-7.430548096E-1,9.981842651E0,-1.922452240E0,1.019240579E1
4.591432083E0,-6.514453125E-1,9.705367584E0,-1.861379242E0,9.903699997E0
4.601363083E0,-6.390211487E-1,9.412875824E0,-1.858684845E0,9.615887305E0
4.611293083E0,-6.565347290E-1,9.179062042E0,-1.875899048E0,9.391763150E0
4.621224083E0,-6.813830566E-1,9.042994995E0,-1.869761810E0,9.259376360E0
4.631154083E0,-7.191046143E-1,9.000034332E0,-1.861678619E0,9.218653736E0
4.641084083E0,-7.509883118E-1,8.917406158E0,-1.836680603E0,9.135508288E0
4.651015083E0,-8.149053955E-1,8.817264404E0,-1.821412354E0,9.040230381E0
4.660945083E0,-9.129515076E-1,8.767567749E0,-1.792821808E0,8.995439663E0
4.670876083E0,-9.801617432E-1,8.718918915E0,-1.716779938E0,8.940223568E0
4.680806083E0,-1.059347076E0,8.685987396E0,-1.582658844E0,8.892322660E0
4.690736083E0,-1.104553070E0,8.665180664E0,-1.492995300E0,8.861965267E0
4.700667458E0,-1.109043732E0,8.680299225E0,-1.445993042E0,8.869524706E0
4.710597458E0,-1.070873108E0,8.662486267E0,-1.407822418E0,8.841233031E0
4.720528458E0,-1.064286804E0,8.607999573E0,-1.310075684E0,8.771924609E0
4.730458458E0,-1.130449219E0,8.552165680E0,-1.183738403E0,8.707392828E0
4.740389458E0,-1.140927429E0,8.519084473E0,-1.056353302E0,8.659815122E0
4.750319458E0,-1.070723419E0,8.471782837E0,-9.407936096E-1,8.590846623E0
4.760249458E0,-9.223818970E-1,8.377628632E0,-8.412506104E-1,8.470132965E0
4.770180458E0,-7.574249268E-1,8.236023102E0,-6.881190491E-1,8.299354004E0
4.780110458E0,-6.063890076E-1,7.974217529E0,-4.962181091E-1,8.012620373E0
4.790041458E0,-5.858816528E-1,7.525301056E0,-3.439846802E-1,7.555907540E0
4.799971458E0,-7.330256653E-1,7.057224426E0,-3.212319946E-1,7.102459660E0
4.809902458E0,-9.283694458E-1,6.502927094E0,-2.320175171E-1,6.572956925E0
4.819832458E0,-1.113534393E0,5.794300690E0,-1.908531189E-1,5.903414626E0
4.829762458E0,-1.336720276E0,4.838837585E0,-1.601669312E-1,5.022631155E0
4.839693458E0,-1.525328064E0,3.777694244E0,2.110610962E-2,4.074069829E0
4.849623458E0,-1.838177490E0,2.318079529E0,5.614823914E-1,3.011254168E0
4.859554458E0,-2.086810455E0,6.203100586E-1,6.610253906E-1,2.275196038E0
4.869484458E0,-1.734592896E0,-4.727169800E-1,-5.354365540E-1,1.875890764E0
4.879414458E0,-1.809886322E0,-1.460961914E0,-2.009720764E0,3.073934899E0
4.889345458E0,-5.442681885E-1,-1.989213409E0,-2.842439117E0,3.511788431E0
4.899275458E0,6.083349609E-1,-7.644602966E-1,-2.949316864E0,3.106918237E0
4.909206458E0,1.308279419E0,1.651665344E0,-3.585194550E0,4.158510960E0
4.919136458E0,2.617157593E0,4.687801666E0,-5.385500793E0,7.604512945E0
4.929067458E0,4.059707794E0,8.537645874E0,-7.277266846E0,1.193026560E1
4.938997458E0,5.224136353E0,1.390368713E1,-8.205636292E0,1.696869422E1
4.948927458E0,6.372548218E0,1.993105316E1,-9.676926727E0,2.305426559E1
4.958858458E0,6.860832825E0,2.303634567E1,-1.120569763E1,2.652002844E1
4.968788458E0,5.903274078E0,2.042697189E1,-9.799072723E0,2.341221160E1
4.978719458E0,4.282743988E0,1.859732666E1,-1.060873901E1,2.183455515E1
4.988649458E0,1.851799164E0,2.007640091E1,-1.155731644E1,2.323924691E1
4.998579458E0,-9.931846619E-1,2.295117279E1,-1.141556122E1,2.565263702E1
5.008510458E0,-2.202669525E0,2.653187668E1,-1.238045471E1,2.936099269E1
5.018440458E0,-2.253713379E0,3.060430801E1,-1.417103119E1,3.380119847E1
5.028371458E0,-1.728006592E0,3.271596680E1,-1.419872360E1,3.570608131E1
5.038301458E0,-7.720944214E-1,3.266073166E1,-1.310225372E1,3.519926952E1
5.048232458E0,-5.522016907E-1,3.195884125E1,-1.230126938E1,3.424899544E1
5.058162458E0,-1.215322723E0,3.116384445E1,-1.253792725E1,3.361341741E1
5.068092458E0,-1.282982025E0,3.024730042E1,-1.314760941E1,3.300613365E1
5.078023458E0,-7.988887024E-1,2.977218842E1,-1.298774185E1,3.249158144E1
5.087953458E0,7.783813477E-3,2.964929398E1,-1.119791382E1,3.169343730E1
5.097884458E0,6.677613831E-1,2.865461243E1,-8.263715515E0,2.982987953E1
5.107814458E0,1.169218597E0,2.532224213E1,-5.098846893E0,2.585693830E1
5.117744458E0,4.502636719E-1,2.010184799E1,-2.305805054E0,2.023867009E1
5.127675458E0,-1.264720001E0,1.481110016E1,-8.286767578E-1,1.488807945E1
5.137605458E0,-2.099384308E0,9.851463776E0,-3.571572876E-1,1.007900364E1
5.147536458E0,-3.387156372E0,6.444099426E0,1.886077881E-2,7.280082516E0
5.157466458E0,-3.027604065E0,3.299588470E0,1.352138214E0,4.677814468E0
5.167397458E0,-3.958218842E0,4.769082642E-1,7.583979034E0,8.568061384E0
5.177327458E0,-5.335804138E0,-1.758692780E0,1.085961731E1,1.222681865E1
5.187257458E0,-2.365830231E0,-4.728966064E0,7.461234283E0,9.144959800E0
5.197188458E0,3.184926910E0,-8.188422089E0,4.999004517E0,1.010861325E1
5.207118458E0,7.682174835E0,-9.682315521E0,1.395997009E0,1.243832190E1
5.217049458E0,8.916657715E0,-8.038134613E0,2.643502808E-1,1.200784218E1
5.226979458E0,5.845643921E0,-2.906655579E0,-1.354682922E-1,6.529820148E0
5.236909458E0,5.106481018E0,2.212848358E0,-3.454516296E0,6.550307557E0
5.246840458E0,6.212680664E0,3.179089050E0,-4.894222412E0,8.523932264E0
5.256770458E0,2.943479004E0,1.281335449E0,-4.984933777E0,5.929203483E0
5.266701458E0,3.110531616E-1,3.845503235E-1,-3.667074280E0,3.700279286E0
5.276631458E0,-8.562194824E-1,-1.703457642E-1,-6.542893982E-1,1.090973922E0
5.286562458E0,-2.026336212E0,-8.562194824E-2,8.527766418E-1,2.200135806E0
5.296492458E0,-4.027375031E0,4.692741394E-1,1.833088074E0,4.449739289E0
5.306422458E0,-5.321434021E0,2.312990112E0,2.367476807E0,6.266779853E0
5.316353458E0,-4.972359924E0,4.706512756E0,2.247576141E0,7.206054680E0
5.326283458E0,-4.754113770E0,5.658982086E0,2.058070221E0,7.672113726E0
5.336214458E0,-4.806953888E0,5.679938507E0,2.070793762E0,7.723774591E0
5.346144458E0,-4.799469452E0,5.134772186E0,1.293011169E0,7.146514557E0
5.356075458E0,-4.171525269E0,4.213587799E0,-1.149609375E-1,5.930359283E0
5.366005458E0,-2.821033630E0,2.334245911E0,-1.076112213E0,3.816405666E0
5.375935458E0,-1.344953156E0,-8.898994446E-1,-1.618135071E0,2.284552718E0
5.385866458E0,4.845423889E-1,-3.809577942E0,-1.990710297E0,4.325574286E0
5.395796458E0,1.864672394E0,-5.363646240E0,-2.180964661E0,6.082952489E0
5.405727458E0,3.061583405E0,-5.830076294E0,-1.765578461E0,6.817649876E0
5.415657458E0,3.560944977E0,-4.971910858E0,-1.002016296E0,6.197117343E0
5.425587458E0,3.974534912E0,-3.862118683E0,-1.384620667E-1,5.543650443E0
5.435518458E0,3.776197357E0,-3.265609131E0,4.905299377E-1,5.016421942E0
5.445448458E0,2.875520325E0,-2.966680756E0,8.584648132E-1,4.219807304E0
5.455379458E0,2.169288940E0,-2.045795746E0,7.229965210E-1,3.068194699E0
5.465309458E0,1.859732666E0,-1.070424042E0,5.519023132E-1,2.215628439E0
5.475240458E0,1.893562317E0,-2.805166626E-1,4.935237122E-1,1.976824094E0
5.485170458E0,1.824555817E0,4.974156189E-1,3.728746033E-1,1.927553293E0
5.495100458E0,1.940714264E0,1.348096619E0,-1.242416382E-2,2.363025753E0
5.505031458E0,1.597627716E0,2.060165863E0,-6.310876465E-1,2.682343997E0
5.514961458E0,9.592053223E-1,2.252665558E0,-1.151555328E0,2.705671200E0
5.524892458E0,4.297563171E-1,2.041604462E0,-1.371897125E0,2.496986382E0
5.534822458E0,-7.813751221E-2,1.655108185E0,-1.212927704E0,2.053456157E0
5.544752458E0,-5.499563599E-1,1.252445526E0,-8.943901062E-1,1.634321099E0
5.554683458E0,-9.861492920E-1,8.460406494E-1,-5.011578369E-1,1.392635769E0
5.564613458E0,-1.478325806E0,4.827461243E-1,-1.113684082E-1,1.559132429E0
5.574544458E0,-1.952539673E0,1.502874756E-1,3.448828125E-1,1.988452075E0
5.584474458E0,-2.123933258E0,-2.167492676E-1,7.551795959E-1,2.264590239E0
5.594405458E0,-2.222877502E0,-3.019221497E-1,2.811154175E-1,2.260833309E0
5.604335458E0,-2.185006256E0,7.111711121E-1,-1.072819061E0,2.535933246E0
5.614265458E0,-2.096839600E0,2.258503418E0,-1.291963348E0,3.341667741E0
5.624196458E0,-1.708547058E0,5.745951233E0,-1.636696472E0,6.214005469E0
5.634126458E0,-3.931274872E0,1.562480804E1,-4.089046783E0,1.662257056E1
5.644057458E0,-8.737929382E0,3.415926544E1,-1.560579758E1,3.855836801E1
5.653987458E0,1.328786774E0,6.903314484E1,-1.872905273E1,7.154102443E1
5.663917458E0,3.534599762E0,7.292071060E1,1.307156754E1,7.416730619E1
5.673848458E0,-6.190975800E0,3.289439575E1,1.259151581E1,3.576193121E1
5.683778458E0,-4.558620300E0,1.759381348E1,-5.007536774E0,1.885202154E1
5.693709458E0,2.388882294E0,1.908112061E1,-9.875413971E0,2.161757903E1
5.703639083E0,1.191013275E1,2.367791153E1,-1.073477692E1,2.859598210E1
5.713570083E0,1.234572693E1,2.382879776E1,-1.044018951E1,2.879628679E1
5.723500083E0,4.336182861E0,2.306583435E1,-1.037028488E1,2.565887770E1
5.733430083E0,8.470884705E-1,1.825962891E1,-7.137756958E0,1.962343449E1
5.743361083E0,-1.123413849E0,1.396880173E1,-5.069058838E0,1.490251113E1
5.753291083E0,-2.290836182E0,1.280392410E1,-4.017046509E0,1.361341491E1
5.763222083E0,-3.857029266E0,1.324430832E1,-3.811823273E0,1.431147701E1
5.773152083E0,-4.760849762E0,1.402119278E1,-4.317022705E0,1.542388480E1
5.783083083E0,-3.727548523E0,1.392030258E1,-4.012406158E0,1.495890521E1
5.793013083E0,-2.168989563E0,1.309566742E1,-4.010909271E0,1.386680980E1
5.802943083E0,-8.247848511E-1,1.165940414E1,-3.452270966E0,1.218770486E1
5.812874083E0,1.210682373E0,1.133817215E1,-2.361040192E0,1.164450129E1
5.822804083E0,2.493963776E0,1.187136337E1,-1.718127136E0,1.225157478E1
5.832735083E0,2.218087463E0,1.115420471E1,-9.855505371E-1,1.141523126E1
5.842665083E0,1.625020752E0,9.678124237E0,-4.569996643E-1,9.824236860E0
5.852595083E0,1.114582214E0,8.078849945E0,-1.252894592E-1,8.156335415E0
5.862526083E0,3.936813354E-1,6.765331421E0,-2.412982178E-1,6.781070642E0
5.872456083E0,-1.431024170E-1,5.658533020E0,-8.072712708E-1,5.717618485E0
5.882387083E0,-5.912704468E-1,4.896467743E0,-1.654808807E0,5.202248484E0
5.892317083E0,-1.023421783E0,4.514761505E0,-2.354154510E0,5.193506239E0
5.902248083E0,-1.219663696E0,4.539310455E0,-2.735112305E0,5.438176005E0
5.912178083E0,-1.127754822E0,4.846172333E0,-2.887944489E0,5.753037509E0
5.922108083E0,-1.311722260E0,5.082680511E0,-2.874921570E0,5.984933625E0
5.932039083E0,-1.342707825E0,5.463638306E0,-2.579136658E0,6.189196534E0
5.941969083E0,-1.029708710E0,6.404880981E0,-1.969604187E0,6.779538411E0
5.951900083E0,-4.742138672E-1,7.823630676E0,-1.044527893E0,7.907282357E0
5.961830083E0,-4.565505981E-2,9.287736053E0,-2.180964661E-1,9.290408573E0
5.971760083E0,9.999206543E-2,1.051757858E1,-2.104623413E-1,1.052015932E1
5.981691083E0,-4.071533203E-2,1.124611359E1,-1.001417542E0,1.129068491E1
5.991621083E0,-5.111869812E-1,1.119851257E1,-1.844165039E0,1.136085123E1
6.001552083E0,-1.033600616E0,1.053943314E1,-2.262694702E0,1.082902435E1
6.011482083E0,-1.403780823E0,9.750124512E0,-2.375859375E0,1.013312570E1
6.021413083E0,-1.591640167E0,9.010662231E0,-2.368674316E0,9.451770749E0
6.031343083E0,-1.635948029E0,8.402776337E0,-2.296823730E0,8.863316274E0
6.041273083E0,-1.675765228E0,8.028853912E0,-2.088157654E0,8.463515028E0
6.051204083E0,-1.745819550E0,7.872728577E0,-1.814975739E0,8.265704935E0
6.061134083E0,-1.763333130E0,7.865244141E0,-1.494342499E0,8.197833166E0
6.071065083E0,-1.776056671E0,8.049061890E0,-1.171314240E0,8.325488073E0
6.080995083E0,-1.779649200E0,8.325087891E0,-9.171427917E-1,8.562440690E0
6.090926083E0,-1.708696747E0,8.556506653E0,-7.839198303E-1,8.760592501E0
6.100856083E0,-1.582808533E0,8.709937592E0,-7.744894409E-1,8.886401386E0
6.110786083E0,-1.384321289E0,8.807534637E0,-8.584648132E-1,8.956895313E0
6.120717083E0,-1.235381012E0,8.887468414E0,-9.862989807E-1,9.026962210E0
6.130647083E0,-1.213975525E0,9.058562622E0,-1.093775482E0,9.204761711E0
6.140578083E0,-1.201850739E0,9.302255859E0,-1.216220856E0,9.458097189E0
6.150508083E0,-1.281784515E0,9.560169525E0,-1.310225372E0,9.734295219E0
6.160438083E0,-1.450483704E0,9.811047821E0,-1.326391754E0,1.000599208E1
6.170369083E0,-1.614991608E0,9.983040161E0,-1.338666229E0,1.020104485E1
6.180299083E0,-1.769769745E0,1.008827133E1,-1.406325531E0,1.033842613E1
6.190230083E0,-1.818568268E0,1.016012192E1,-1.468296661E0,1.042550541E1
6.200160083E0,-1.826052704E0,1.015712814E1,-1.467248840E0,1.042374883E1
6.210091083E0,-1.817819824E0,1.007779312E1,-1.417402496E0,1.033805654E1
6.220021083E0,-1.785037994E0,9.962083740E0,-1.313368835E0,1.020560683E1
6.229951083E0,-1.756896515E0,9.830357666E0,-1.153052216E0,1.005246968E1
6.239882083E0,-1.821861420E0,9.653874664E0,-9.276210022E-1,9.867976276E0
6.249812083E0,-1.876198425E0,9.473948822E0,-7.104226685E-1,9.684034654E0
6.259743083E0,-1.887275391E0,9.312584381E0,-5.575904846E-1,9.518242664E0
6.269673083E0,-1.917662201E0,9.184301147E0,-4.418811035E-1,9.392767153E0
6.279603083E0,-1.974843292E0,9.134305115E0,-3.749702454E-1,9.352867937E0
6.289534083E0,-2.082020416E0,9.188791809E0,-3.415896606E-1,9.427904721E0
6.299464083E0,-2.242187347E0,9.293573914E0,-4.233197021E-1,9.569593500E0
6.309395083E0,-2.349214783E0,9.387129364E0,-5.697152710E-1,9.693378321E0
6.319325083E0,-2.398162994E0,9.464219055E0,-7.658074951E-1,9.793318600E0
6.329256083E0,-2.397264862E0,9.492510223E0,-1.000968475E0,9.841573403E0
6.339186083E0,-2.345921631E0,9.468560028E0,-1.159937897E0,9.823565199E0
6.349116083E0,-2.262545013E0,9.404193878E0,-1.206640778E0,9.747510164E0
6.359047083E0,-2.180365906E0,9.339678040E0,-1.209933929E0,9.666825822E0
6.368977083E0,-2.010020142E0,9.242380371E0,-1.203796692E0,9.534720886E0
6.378908083E0,-1.812431030E0,9.121431885E0,-1.203796692E0,9.377342499E0
6.388838083E0,-1.644779663E0,8.971593475E0,-1.232985992E0,9.204077579E0
6.398768083E0,-1.490300903E0,8.850495300E0,-1.225800934E0,9.058413314E0
6.408699083E0,-1.367855530E0,8.855135651E0,-1.160087585E0,9.034946560E0
6.418629083E0,-1.308878174E0,9.056317291E0,-1.116378479E0,9.218261542E0
6.428560083E0,-1.311273193E0,9.332792358E0,-1.105002136E0,9.489018933E0
6.438490083E0,-1.380429382E0,9.636810150E0,-1.102457428E0,9.797403101E0
6.448421083E0,-1.465003510E0,9.877808990E0,-1.116677856E0,1.004810008E1
6.458351083E0,-1.527872772E0,1.004186783E1,-1.106199646E0,1.021749394E1
6.468281083E0,-1.533860321E0,1.017404297E1,-1.120120697E0,1.034980909E1
6.478212083E0,-1.481618958E0,1.025337799E1,-1.144969025E0,1.042295107E1
6.488142083E0,-1.396146698E0,1.017748581E1,-1.176104279E0,1.033990640E1
6.498073083E0,-1.302890625E0,1.002136047E1,-1.189276886E0,1.017543951E1
6.508003083E0,-1.226699066E0,9.852511597E0,-1.129102020E0,9.992579584E0
6.517933083E0,-1.221310272E0,9.711205444E0,-1.033151550E0,9.842078647E0
6.527864083E0,-1.326840820E0,9.600435791E0,-9.419911194E-1,9.737362128E0
6.537794083E0,-1.511407013E0,9.516460419E0,-8.601113892E-1,9.674045775E0
6.547725083E0,-1.706601105E0,9.482780457E0,-8.607101440E-1,9.673491328E0
6.557655083E0,-1.858385468E0,9.491761780E0,-9.012757874E-1,9.713878539E0
6.567586083E0,-2.025288391E0,9.560917969E0,-9.616003418E-1,9.820265816E0
6.577516083E0,-2.156266022E0,9.639354858E0,-1.005309448E0,9.928609788E0
6.587446083E0,-2.204166412E0,9.714797974E0,-9.665400696E-1,1.000848884E1
6.597377083E0,-2.223476257E0,9.697883148E0,-9.147477722E-1,9.991473751E0
6.607307083E0,-2.160307617E0,9.631121979E0,-8.499325562E-1,9.906958409E0
6.617238083E0,-2.065854034E0,9.577982483E0,-7.914042664E-1,9.830148628E0
6.627168083E0,-1.929936676E0,9.537267151E0,-8.050259399E-1,9.763820310E0
6.637098083E0,-1.851200409E0,9.482032013E0,-7.794291687E-1,9.692439521E0
6.647029083E0,-1.858235779E0,9.436526642E0,-7.363188171E-1,9.645892425E0
6.656959083E0,-1.910926208E0,9.439520416E0,-7.270381165E-1,9.658404065E0
6.666890083E0,-1.984273682E0,9.486672363E0,-7.074288940E-1,9.717754381E0
6.676820083E0,-2.042502594E0,9.525591431E0,-7.240443420E-1,9.768978921E0
6.686750083E0,-2.105072479E0,9.576485596E0,-7.777825928E-1,9.835921526E0
6.696681083E0,-2.168839874E0,9.816586304E0,-6.562353516E-1,1.007471478E1
6.706611583E0,-2.064207458E0,9.978549500E0,-7.343728638E-1,1.021624716E1
6.716542583E0,-2.159409485E0,9.981393585E0,-8.397537231E-1,1.024677772E1
6.726472583E0,-2.187101898E0,9.871971130E0,-8.514294434E-1,1.014712574E1
6.736403583E0,-2.142195282E0,9.707014160E0,-8.304730225E-1,9.975209771E0
6.746333583E0,-2.082768860E0,9.573042755E0,-8.488847351E-1,9.833701186E0
6.756263583E0,-2.057920532E0,9.464967499E0,-8.379574585E-1,9.722284679E0
6.766194583E0,-2.043550415E0,9.437424774E0,-7.710466003E-1,9.686877594E0
6.776124583E0,-2.037712555E0,9.384434967E0,-7.521858215E-1,9.632532150E0
6.786055583E0,-2.117346954E0,9.410630493E0,-7.945477295E-1,9.678555187E0
6.795985583E0,-2.108964386E0,9.528136139E0,-7.999365234E-1,9.791476268E0
6.805915583E0,-2.172881470E0,9.610614624E0,-8.996292114E-1,9.894173035E0
6.815846583E0,-2.118993530E0,9.668843536E0,-9.581575012E-1,9.944583184E0
6.825776583E0,-2.005828857E0,9.641001434E0,-9.964778137E-1,9.897738433E0
6.835707583E0,-1.903142395E0,9.597891083E0,-1.016087036E0,9.837372468E0
6.845637583E0,-1.795815582E0,9.605974274E0,-9.614506531E-1,9.819576504E0
6.855568583E0,-1.755699005E0,9.606722717E0,-9.313632202E-1,9.810149734E0
6.865498583E0,-1.786385193E0,9.621990967E0,-8.969348145E-1,9.827429689E0
6.875428583E0,-1.856738892E0,9.648635559E0,-8.674461365E-1,9.863879068E0
6.885359583E0,-1.923799438E0,9.649683380E0,-8.949888611E-1,9.880202360E0
6.895289583E0,-1.974992981E0,9.603579254E0,-9.496252441E-1,9.850437547E0
6.905220583E0,-1.994602203E0,9.545050964E0,-9.624984741E-1,9.798614146E0
6.915150583E0,-1.989512787E0,9.518556061E0,-9.508227539E-1,9.770626107E0
6.925081583E0,-1.974244537E0,9.504335632E0,-9.354048157E-1,9.752180242E0
6.935011583E0,-1.964065704E0,9.522597656E0,-9.307644653E-1,9.767483949E0
6.944941583E0,-1.949994965E0,9.536369019E0,-9.488768005E-1,9.779835459E0
6.954872583E0,-1.905537415E0,9.557325439E0,-9.515711975E-1,9.791783808E0
6.964802583E0,-1.902992706E0,9.608818359E0,-9.681866455E-1,9.843178190E0
6.974733583E0,-1.925146637E0,9.652078400E0,-9.574090576E-1,9.888652037E0
6.984663583E0,-1.956581268E0,9.678872681E0,-9.333091736E-1,9.918661837E0
6.994593583E0,-2.005230103E0,9.686955872E0,-9.265731812E-1,9.935622763E0
7.004524583E0,-2.024839325E0,9.647737427E0,-9.313632202E-1,9.901830598E0
7.014454583E0,-2.002835083E0,9.569599915E0,-9.379495239E-1,9.821829779E0
7.024385583E0,-1.948049011E0,9.539512482E0,-9.641450500E-1,9.784005776E0
7.034315583E0,-1.881287842E0,9.512867889E0,-9.937834167E-1,9.747897461E0
7.044245583E0,-1.808838501E0,9.510173492E0,-1.020877075E0,9.734345719E0
7.054176583E0,-1.756148071E0,9.533075867E0,-1.045126648E0,9.749660570E0
7.064106583E0,-1.701362000E0,9.568851471E0,-1.053509216E0,9.775859696E0
7.074037583E0,-1.632954254E0,9.640851746E0,-1.082698517E0,9.837926512E0
7.083967583E0,-1.580862579E0,9.690997467E0,-1.085841980E0,9.878947880E0
7.093898583E0,-1.547631683E0,9.709409180E0,-1.091829529E0,9.892415386E0
7.103828583E0,-1.530866547E0,9.684560852E0,-1.072070618E0,9.863245241E0
7.113758583E0,-1.514700165E0,9.654174042E0,-1.034199371E0,9.826849005E0
7.123689583E0,-1.510808258E0,9.626481628E0,-1.002016296E0,9.795699403E0
7.133619583E0,-1.519490204E0,9.594897308E0,-9.690847778E-1,9.762685601E0
7.143550583E0,-1.535806274E0,9.564211121E0,-9.499246216E-1,9.733200504E0
7.153480583E0,-1.567091217E0,9.555229797E0,-9.490264893E-1,9.729277601E0
7.163410583E0,-1.602866821E0,9.579928436E0,-9.529183960E-1,9.759726654E0
7.173341583E0,-1.626817017E0,9.623188477E0,-9.813592529E-1,9.808942657E0
7.183271583E0,-1.650617523E0,9.640702057E0,-1.009500732E0,9.832942901E0
7.193202583E0,-1.668280792E0,9.647737427E0,-1.021326141E0,9.844039077E0
7.203132583E0,-1.673519897E0,9.660460968E0,-1.014290771E0,9.856670875E0
7.213063583E0,-1.672921143E0,9.673334198E0,-9.988728333E-1,9.867614027E0
7.222993583E0,-1.669328613E0,9.662406921E0,-9.786648560E-1,9.854265596E0
7.232923583E0,-1.672472076E0,9.627679138E0,-9.448352051E-1,9.817437649E0
7.242854583E0,-1.670975189E0,9.586514740E0,-9.051676941E-1,9.773062544E0
7.252784583E0,-1.669627991E0,9.561816101E0,-9.119036865E-1,9.749233463E0
7.262715583E0,-1.682650909E0,9.561516724E0,-9.168434143E-1,9.751641810E0
7.272645583E0,-1.696122894E0,9.571994934E0,-9.157955933E-1,9.764148783E0
7.282575583E0,-1.714684296E0,9.605525208E0,-9.301657104E-1,9.801605225E0
7.292506583E0,-1.757944336E0,9.648635559E0,-9.412426758E-1,9.852536436E0
7.302436583E0,-1.783391418E0,9.675429840E0,-9.075627136E-1,9.880187125E0
7.312367583E0,-1.799707489E0,9.695488129E0,-8.653504944E-1,9.899003413E0
7.322297583E0,-1.786385193E0,9.718839569E0,-8.481362915E-1,9.917981135E0
7.332228583E0,-1.778900757E0,9.735305328E0,-8.324189758E-1,9.931443958E0
7.342158583E0,-1.772613831E0,9.712402954E0,-8.089178467E-1,9.905921412E0
7.352088583E0,-1.765877838E0,9.691296844E0,-7.958949280E-1,9.882965537E0
7.362019583E0,-1.770518188E0,9.668693848E0,-8.138575745E-1,9.863099894E0
7.371949583E0,-1.791025543E0,9.685908051E0,-8.598120117E-1,9.887561072E0
7.381880583E0,-1.811682587E0,9.703870697E0,-9.114546204E-1,9.913528626E0
7.391810583E0,-1.857038269E0,9.704469452E0,-9.487271118E-1,9.925996253E0
7.401740583E0,-1.903292084E0,9.727521515E0,-9.720785522E-1,9.959524702E0
7.411671583E0,-2.001637573E0,9.745933228E0,-9.755213928E-1,9.997070043E0
7.421601583E0,-2.031874695E0,9.753267975E0,-1.001118164E0,1.001284118E1
7.431532583E0,-2.061962128E0,9.683513031E0,-9.795629883E-1,9.948952512E0
7.441462583E0,-2.096091156E0,9.563911743E0,-9.834548950E-1,9.840182391E0
7.451392583E0,-2.087259521E0,9.449848938E0,-9.870474243E-1,9.727824005E0
7.461323583E0,-2.028132477E0,9.366472321E0,-9.535171509E-1,9.630852508E0
7.471253583E0,-2.000290375E0,9.324858856E0,-9.470805359E-1,9.583898779E0
7.481184583E0,-1.951940918E0,9.342073059E0,-9.383985901E-1,9.589838075E0
7.491114583E0,-1.912872162E0,9.400152283E0,-9.235794067E-1,9.637164612E0
7.501045583E0,-1.910926208E0,9.513316956E0,-9.493258667E-1,9.749669639E0
7.510975583E0,-1.918710022E0,9.635912018E0,-9.743238831E-1,9.873274816E0
7.520905583E0,-1.907333679E0,9.717492371E0,-1.003064117E0,9.953578118E0
7.530836583E0,-1.888472900E0,9.758058014E0,-1.017134857E0,9.991025444E0
7.540766583E0,-1.833387451E0,9.763895874E0,-1.017284546E0,9.986482866E0
7.550697583E0,-1.784139862E0,9.741741943E0,-1.003363495E0,9.954467813E0
7.560627583E0,-1.732946320E0,9.708061981E0,-9.711804199E-1,9.909226094E0
7.570557583E0,-1.686842194E0,9.673184509E0,-9.122030640E-1,9.861442570E0
7.580488583E0,-1.662442932E0,9.634115753E0,-8.714877319E-1,9.815263303E0
7.590418583E0,-1.644031219E0,9.617799683E0,-8.461903381E-1,9.793924008E0
7.600349583E0,-1.680255890E0,9.617350616E0,-8.306227112E-1,9.798297139E0
7.610279583E0,-1.717528381E0,9.618997192E0,-8.454418945E-1,9.807638998E0
7.620210583E0,-1.761985931E0,9.601483612E0,-9.078620911E-1,9.803942857E0
7.630140583E0,-1.781744843E0,9.627230072E0,-9.633966064E-1,9.838003180E0
7.640070583E0,-1.782193909E0,9.639055481E0,-1.003513184E0,9.853661472E0
7.650001583E0,-1.801952820E0,9.623038788E0,-9.759704590E-1,9.838822481E0
7.659931583E0,-1.847607880E0,9.609866180E0,-9.446855164E-1,9.831358686E0
7.669862583E0,-1.831740875E0,9.622290344E0,-9.208850098E-1,9.838281115E0
7.679792583E0,-1.726060638E0,9.594148865E0,-9.135502625E-1,9.790891269E0
7.689722583E0,-1.768572235E0,9.556127930E0,-9.151968384E-1,9.761404305E0
7.699653208E0,-1.719923401E0,9.612111511E0,-8.891510010E-1,9.805172804E0
7.709583208E0,-1.758543091E0,9.579778748E0,-9.096583557E-1,9.782234560E0
7.719514208E0,-1.788929901E0,9.559870148E0,-9.559121704E-1,9.772673918E0
7.729444208E0,-1.831740875E0,9.561666412E0,-9.984237671E-1,9.786602538E0
7.739375208E0,-1.839973755E0,9.596244507E0,-1.017134857E0,9.823847280E0
7.749305208E0,-1.845512238E0,9.664352875E0,-1.038540344E0,9.893644321E0
7.759235208E0,-1.854643250E0,9.720336456E0,-1.052760773E0,9.951529915E0
7.769166208E0,-1.848955078E0,9.741592255E0,-1.031804352E0,9.969045830E0
7.779096208E0,-1.822460175E0,9.753567352E0,-9.925859070E-1,9.971893700E0
7.789027208E0,-1.800904999E0,9.741442566E0,-9.648934937E-1,9.953390454E0
7.798957208E0,-1.756148071E0,9.698631592E0,-9.428892517E-1,9.901340866E0
7.808887208E0,-1.725761261E0,9.622440033E0,-9.307644653E-1,9.820179561E0
7.818818208E0,-1.714384918E0,9.563762054E0,-9.303153992E-1,9.760642757E0
7.828748208E0,-1.730401611E0,9.518855438E0,-9.415420532E-1,9.720565829E0
7.838679208E0,-1.756896515E0,9.486971741E0,-9.747729492E-1,9.697396582E0
7.848609208E0,-1.748064880E0,9.459878082E0,-9.957293701E-1,9.671427048E0
7.858540208E0,-1.708846436E0,9.466165009E0,-9.753717041E-1,9.668494509E0
7.868470208E0,-1.670376434E0,9.503736877E0,-9.783654785E-1,9.698885043E0
7.878400208E0,-1.620679779E0,9.542506256E0,-9.946815491E-1,9.730129494E0
7.888331208E0,-1.591340790E0,9.576186218E0,-9.909393311E-1,9.757954127E0
7.898261208E0,-1.604812775E0,9.602681122E0,-9.879455566E-1,9.785854341E0
7.908192208E0,-1.627116394E0,9.620643768E0,-1.004860382E0,9.808875505E0
7.918122208E0,-1.657952271E0,9.637857971E0,-1.016087036E0,9.832067172E0
7.928052208E0,-1.682201843E0,9.611662445E0,-1.018781433E0,9.810798826E0
7.937983208E0,-1.696871338E0,9.619595947E0,-1.008901978E0,9.820075444E0
7.947913208E0,-1.692380676E0,9.654323730E0,-1.005758514E0,9.853003057E0
7.957844208E0,-1.711989899E0,9.661059723E0,-1.000369720E0,9.862440061E0
7.967774208E0,-1.722019043E0,9.651479645E0,-9.807604980E-1,9.852832084E0
7.977705208E0,-1.727407837E0,9.628577271E0,-9.809101868E-1,9.831359157E0
7.987635208E0,-1.735940094E0,9.623487854E0,-9.708810425E-1,9.826882338E0
7.997565208E0,-1.753303986E0,9.651329956E0,-9.889933777E-1,9.859023922E0
8.007496208E0,-1.783092041E0,9.664652252E0,-1.021326141E0,9.880689625E0
8.017426208E0,-1.811532898E0,9.641600189E0,-1.027313690E0,9.863948452E0
8.027357208E0,-1.827250214E0,9.654623108E0,-1.041833496E0,9.881093448E0
8.037287208E0,-1.833537140E0,9.697284393E0,-1.055455170E0,9.925380026E0
8.047217208E0,-1.834584961E0,9.759405212E0,-1.058598633E0,9.986607189E0
8.057148208E0,-1.830543365E0,9.782307587E0,-1.059496765E0,1.000834472E1
8.067078208E0,-1.821562042E0,9.730066223E0,-1.038839722E0,9.953464972E0
8.077009208E0,-1.801354065E0,9.642348633E0,-1.007554779E0,9.860777366E0
8.086939208E0,-1.768422546E0,9.574689331E0,-9.632469177E-1,9.784162648E0
8.096869208E0,-1.732197876E0,9.542356567E0,-9.607022095E-1,9.745769702E0
8.106800208E0,-1.702260132E0,9.521849213E0,-9.798623657E-1,9.722316197E0
8.116730208E0,-1.669478302E0,9.533225555E0,-9.842033386E-1,9.728216872E0
8.126661208E0,-1.635349274E0,9.566755829E0,-9.846524048E-1,9.755343392E0
8.136591208E0,-1.606010284E0,9.623637543E0,-9.924362183E-1,9.807068789E0
8.146522208E0,-1.588945770E0,9.661209412E0,-9.861492920E-1,9.840538927E0
8.156452208E0,-1.615440674E0,9.658814392E0,-9.812095642E-1,9.842007734E0
8.166382208E0,-1.630110168E0,9.640851746E0,-9.927355957E-1,9.827960394E0
8.176313208E0,-1.664538574E0,9.617649994E0,-1.015637970E0,9.813327700E0
8.186243208E0,-1.675316162E0,9.599537659E0,-1.028211823E0,9.798725787E0
8.196174208E0,-1.669927368E0,9.608369293E0,-1.038240967E0,9.807515597E0
8.206104208E0,-1.680255890E0,9.622440033E0,-1.048419800E0,9.824143531E0
8.216034208E0,-1.682950287E0,9.638905792E0,-1.056952057E0,9.841644893E0
8.225965208E0,-1.676962738E0,9.630672913E0,-1.072220306E0,9.834211771E0
8.235895208E0,-1.690734100E0,9.638756104E0,-1.064137115E0,9.843606495E0
8.245826208E0,-1.685045929E0,9.662556610E0,-1.059646454E0,9.865456433E0
8.255756208E0,-1.695224762E0,9.670190735E0,-1.040635986E0,9.872654106E0
8.265686208E0,-1.723515930E0,9.654473419E0,-1.022224274E0,9.860238670E0
8.275617208E0,-1.753004608E0,9.630972290E0,-9.987231445E-1,9.840025423E0
8.285547208E0,-1.775906982E0,9.622440033E0,-9.834548950E-1,9.834245336E0
8.295478208E0,-1.799408112E0,9.632618866E0,-9.972262573E-1,9.849856648E0
8.305408208E0,-1.787283325E0,9.638456726E0,-1.023721161E0,9.856076033E0
8.315339208E0,-1.776056671E0,9.632768555E0,-1.048270111E0,9.851064793E0
8.325269208E0,-1.752705231E0,9.605076141E0,-1.092727661E0,9.824638266E0
8.335199208E0,-1.731299744E0,9.600884857E0,-1.094074860E0,9.816893024E0
8.345130208E0,-1.712139587E0,9.605824585E0,-1.111139374E0,9.820280985E0
8.355060208E0,-1.705553284E0,9.614506531E0,-1.114133148E0,9.827967262E0
8.364991208E0,-1.707499237E0,9.599238281E0,-1.089883575E0,9.810646025E0
8.374921208E0,-1.710642700E0,9.607022095E0,-1.076112213E0,9.817290332E0
8.384851208E0,-1.714534607E0,9.599537659E0,-1.059347076E0,9.808820949E0
8.394782208E0,-1.712139587E0,9.592951355E0,-1.061442719E0,9.802183344E0
8.404712208E0,-1.663790131E0,9.618697815E0,-1.062340851E0,9.819170705E0
8.414643208E0,-1.651066589E0,9.582173767E0,-1.087039490E0,9.783952669E0
8.424573208E0,-1.670825500E0,9.572593689E0,-1.088536377E0,9.778093844E0
8.434504208E0,-1.694326630E0,9.604926453E0,-1.078207855E0,9.812639149E0
8.444434208E0,-1.751657410E0,9.607920227E0,-1.100960541E0,9.828150837E0
8.454364208E0,-1.844015350E0,9.600735168E0,-1.116528168E0,9.839773551E0
8.464295208E0,-1.824705505E0,9.594897308E0,-1.104702759E0,9.829138961E0
8.474225208E0,-1.812580719E0,9.588460693E0,-1.111887817E0,9.821421580E0
8.484156208E0,-1.771416321E0,9.594597931E0,-1.088536377E0,9.817287644E0
8.494086208E0,-1.732946320E0,9.606573029E0,-1.050665131E0,9.818006188E0
8.504016208E0,-1.725611572E0,9.610165558E0,-1.026864624E0,9.817711969E0
8.513947208E0,-1.697769470E0,9.616153107E0,-9.966275024E-1,9.815604318E0
8.523877208E0,-1.660946045E0,9.606423340E0,-9.889933777E-1,9.798990716E0
8.533808208E0,-1.663939819E0,9.613758087E0,-9.861492920E-1,9.806402536E0
8.543738208E0,-1.674418030E0,9.618847504E0,-9.779164124E-1,9.812350562E0
8.553669208E0,-1.704355774E0,9.620045013E0,-9.894424438E-1,9.819831517E0
8.563599208E0,-1.716929626E0,9.634714508E0,-9.997709656E-1,9.837434268E0
8.573529208E0,-1.728156281E0,9.658664703E0,-1.008602600E0,9.863752186E0
8.583460208E0,-1.713037720E0,9.687404938E0,-1.035546570E0,9.892050816E0
8.593390208E0,-1.703008575E0,9.682614899E0,-1.049018555E0,9.887047558E0
8.603321208E0,-1.685644684E0,9.653275909E0,-1.032852173E0,9.853624582E0
8.613251208E0,-1.650617523E0,9.630672913E0,-1.015188904E0,9.823696222E0
8.623181208E0,-1.626966705E0,9.627679138E0,-1.001716919E0,9.815429845E0
8.633112208E0,-1.639839935E0,9.636810150E0,-9.933343506E-1,9.825675448E0
8.643042208E0,-1.659748535E0,9.637558594E0,-9.865983582E-1,9.829073057E0
8.652973208E0,-1.674717407E0,9.614656219E0,-9.753717041E-1,9.808039691E0
8.662903208E0,-1.689536591E0,9.597891083E0,-9.560618591E-1,9.792247005E0
8.672834208E0,-1.690883789E0,9.599238281E0,-9.524693298E-1,9.793449923E0
8.682764208E0,-1.698368225E0,9.618997192E0,-9.472302246E-1,9.813603146E0
8.692694208E0,-1.722019043E0,9.623637543E0,-9.517208862E-1,9.822704403E0
8.702625083E0,-1.723366241E0,9.628876648E0,-9.641450500E-1,9.829284429E0
8.712555083E0,-1.719624023E0,9.614955597E0,-9.689350891E-1,9.815462960E0
8.722486083E0,-1.696721649E0,9.583221588E0,-9.859996033E-1,9.782085441E0
8.732416083E0,-1.680106201E0,9.560169525E0,-9.912387085E-1,9.757159032E0
8.742346083E0,-1.647024994E0,9.545200653E0,-9.780661011E-1,9.735510266E0
8.752277083E0,-1.624721375E0,9.521699524E0,-9.520202637E-1,9.706123013E0
8.762207083E0,-1.615440674E0,9.511520691E0,-9.126521301E-1,9.690800191E0
8.772138083E0,-1.626667328E0,9.506730652E0,-8.580157471E-1,9.682983285E0
8.782068083E0,-1.651964722E0,9.497899017E0,-8.047265625E-1,9.674019745E0
8.791998083E0,-1.687740326E0,9.508975983E0,-7.704478455E-1,9.688275467E0
8.801929083E0,-1.730251923E0,9.546847229E0,-7.674540710E-1,9.732679460E0
8.811859083E0,-1.757046204E0,9.609566803E0,-7.951464844E-1,9.801185818E0
8.821790083E0,-1.801054688E0,9.674531708E0,-8.255332947E-1,9.875316044E0
8.831720083E0,-1.841620331E0,9.693093109E0,-8.541238403E-1,9.903390682E0
8.841651083E0,-1.882485352E0,9.683962097E0,-8.813671875E-1,9.904528314E0
8.851581083E0,-1.915865936E0,9.664801941E0,-9.068142700E-1,9.894506100E0
8.861511083E0,-1.936672668E0,9.634265442E0,-9.502239990E-1,9.872826205E0
8.871442083E0,-1.907183990E0,9.601483612E0,-9.857002258E-1,9.838569167E0
8.881372083E0,-1.833088074E0,9.543404388E0,-9.967771912E-1,9.768845581E0
8.891303083E0,-1.745370483E0,9.502988434E0,-1.006956024E0,9.714271343E0
8.901233083E0,-1.679058380E0,9.537716217E0,-9.804611206E-1,9.733887799E0
8.911163083E0,-1.645528107E0,9.632020111E0,-9.336085510E-1,9.816068413E0
8.921094083E0,-1.650467834E0,9.709409180E0,-8.773255920E-1,9.887687843E0
8.931024083E0,-1.706152039E0,9.747729492E0,-8.473878479E-1,9.932132258E0
8.940955083E0,-1.758243713E0,9.787097626E0,-8.409512329E-1,9.979273514E0
8.950885083E0,-1.783990173E0,9.862989807E0,-8.231382751E-1,1.005677610E1
8.960816083E0,-1.816472626E0,9.958491211E0,-7.902067566E-1,1.015359772E1
8.970746083E0,-1.853894806E0,1.004231689E1,-7.593708801E-1,1.024020013E1
8.980676083E0,-1.882485352E0,1.007794281E1,-7.120692444E-1,1.027695115E1
8.990607083E0,-1.881138153E0,1.004995102E1,-6.584806824E-1,1.024567192E1
9.000537083E0,-1.839375000E0,9.917775879E0,-6.144721985E-1,1.010560017E1
9.010468083E0,-1.776505737E0,9.736053772E0,-5.763015747E-1,9.913568439E0
9.020398083E0,-1.735790405E0,9.569749603E0,-5.004093933E-1,9.738762004E0
9.030328083E0,-1.741478577E0,9.429491272E0,-3.544628906E-1,9.595504011E0
9.040259083E0,-1.828298035E0,9.361233215E0,-1.700463867E-1,9.539616176E0
9.050189083E0,-2.018552399E0,9.395960999E0,-3.652404785E-2,9.610409506E0
9.060120083E0,-2.260449371E0,9.333989868E0,1.038839722E-1,9.604363076E0
9.070050083E0,-2.396516418E0,9.201515350E0,1.384620667E-1,9.509487233E0
9.079981083E0,-2.415227509E0,9.026379547E0,8.696914673E-2,9.344325298E0
9.089911083E0,-2.259850616E0,8.779991913E0,-5.822891235E-2,9.066342890E0
9.099841083E0,-2.068398743E0,8.597072296E0,-2.300715637E-1,8.845386275E0
9.109772083E0,-1.789229279E0,8.500373383E0,-4.384382629E-1,8.697696084E0
9.119702083E0,-1.172362061E0,8.128546600E0,-7.357200623E-1,8.245543441E0
9.129633083E0,-2.965333557E-1,7.048542480E0,-1.283281403E0,7.170543514E0
9.139563083E0,6.556365967E-1,5.475613403E0,-1.987866211E0,5.862065640E0
9.149493083E0,1.467697906E0,4.395609283E0,-2.779569855E0,5.403843696E0
9.159424083E0,1.018032990E0,3.424578552E0,-2.853965149E0,4.572662955E0
9.169354083E0,7.038363647E-1,2.164349213E0,-2.468666382E0,3.357693680E0
9.179285083E0,9.629475403E-1,1.765129395E0,-2.362986145E0,3.102684848E0
9.189215083E0,1.656754761E0,2.236199799E0,-2.636467438E0,3.833586627E0
9.199146083E0,1.760189667E0,2.941682739E0,-3.438948669E0,4.855731969E0
9.209076083E0,1.561852112E0,3.642225952E0,-4.136647797E0,5.728616491E0
9.219006083E0,1.347647552E0,4.976850586E0,-4.693340149E0,6.972276345E0
9.228937083E0,1.211580505E0,6.792724457E0,-5.438640289E0,8.785661106E0
9.238867083E0,8.253836060E-1,8.552015991E0,-5.801934814E0,1.036728910E1
9.248798083E0,3.221301270E-1,8.978628845E0,-4.998405762E0,1.028122580E1
9.258728083E0,2.676434326E-1,7.814649353E0,-3.622616730E0,8.617640599E0
9.268658083E0,7.409591675E-1,6.460864563E0,-2.773282928E0,7.069857820E0
9.278589083E0,1.437909851E0,5.795947266E0,-2.837050323E0,6.611311820E0
9.288519083E0,2.005679169E0,5.782924347E0,-3.739822998E0,7.172951902E0
9.298450083E0,2.525548096E0,6.404431915E0,-5.137316895E0,8.589945647E0
9.308380083E0,2.764600983E0,7.715256042E0,-6.212980042E0,1.028442100E1
9.318310083E0,3.177891541E0,9.086554413E0,-6.674919434E0,1.171405204E1
9.328241083E0,3.758534088E0,1.061023590E1,-6.875951385E0,1.319023851E1
9.338171083E0,4.058061218E0,1.192869415E1,-7.016060028E0,1.442174412E1
9.348102083E0,4.197720795E0,1.266905457E1,-7.372768250E0,1.524741011E1
9.358032083E0,4.174369354E0,1.325778030E1,-7.870782623E0,1.597320623E1
9.367963083E0,3.739074554E0,1.375459717E1,-8.339907074E0,1.651434745E1
9.377893083E0,3.181334381E0,1.444301559E1,-8.742420044E0,1.717997369E1
9.387823083E0,2.920726318E0,1.559082870E1,-9.143136749E0,1.830850981E1
9.397754083E0,2.815046082E0,1.702679260E1,-9.741442566E0,1.981746336E1
9.407684083E0,2.601290588E0,1.911285461E1,-1.028541138E1,2.185995452E1
9.417615083E0,2.030677185E0,2.165801193E1,-1.038121216E1,2.410316777E1
9.427545083E0,1.246907043E0,2.388717636E1,-1.015533188E1,2.598620282E1
9.437475083E0,4.405339050E-1,2.547267929E1,-9.936187592E0,2.734555328E1
9.447406083E0,-4.198768616E-1,2.684218140E1,-1.006237518E1,2.866932844E1
9.457336083E0,-1.012943573E0,2.773432617E1,-1.057056839E1,2.969774097E1
9.467267083E0,-1.111289062E0,2.803175766E1,-1.099179245E1,3.013028215E1
9.477197083E0,-5.803431702E-1,2.804418182E1,-1.128982269E1,3.023694807E1
9.487127083E0,4.552033997E-1,2.769914932E1,-1.105541016E1,2.982737295E1
9.497058083E0,1.203946381E0,2.706791199E1,-1.038510406E1,2.901674917E1
9.506988083E0,1.406624908E0,2.686164093E1,-9.743089142E0,2.860863739E1
9.516919083E0,4.082011414E-1,2.658277084E1,-8.952583008E0,2.805279088E1
9.526849083E0,-1.032103729E0,2.559722031E1,-7.235803070E0,2.662028872E1
9.536780083E0,-2.296224976E0,2.440494965E1,-4.857398987E0,2.498936857E1
9.546710083E0,-3.749103699E0,2.265493881E1,-2.763253784E0,2.312871814E1
9.556640083E0,-4.318369904E0,1.922691742E1,-1.358425140E0,1.975267048E1
9.566571083E0,-3.043920135E0,1.391476410E1,-9.506730652E-1,1.427549961E1
9.576501083E0,-1.773811340E0,9.148824921E0,-6.957531738E-1,9.345131170E0
9.586432083E0,-1.284628601E0,6.200705566E0,-6.262976074E-1,6.363275010E0
9.596362083E0,-2.017803955E-1,3.781137085E0,6.724017334E-1,3.845755722E0
9.606292083E0,-4.370910645E-2,1.313967590E0,3.592529297E0,3.825531083E0
9.616223083E0,1.001417542E-1,-1.391955414E0,5.991141357E0,6.151531761E0
9.626153083E0,1.014141083E0,-5.074447632E0,6.813980255E0,8.556215742E0
9.636084083E0,8.994795227E-1,-8.771609344E0,6.541397095E0,1.097907418E1
9.646014083E0,1.739832001E0,-1.284478912E1,5.720055084E0,1.416808573E1
9.655944083E0,4.135450287E0,-1.270647675E1,2.756517792E0,1.364385908E1
9.665875083E0,1.377285919E0,-6.852749634E0,2.114951935E0,7.302747136E0
9.675805083E0,-1.902393951E0,-2.875071259E0,1.257684631E0,3.669728617E0
9.685736083E0,-1.463955688E0,-1.217717743E0,-1.722767487E0,2.567864983E0
9.695666083E0,-1.290316772E-1,-1.361418915E0,-3.607348480E0,3.857858693E0
9.705596708E0,-1.767823792E-1,-1.330732727E0,-4.556524658E0,4.750159846E0
9.715526708E0,3.022215271E-1,-5.694158936E-1,-4.451143799E0,4.497583065E0
9.725456708E0,1.435514832E-1,3.303630066E-1,-2.886597290E0,2.908984472E0
9.735387708E0,2.742297363E-1,9.604028320E-1,-1.509760437E0,1.810235378E0
9.745317708E0,4.327500916E-1,1.621128845E0,-1.373843079E0,2.168588522E0
9.755248708E0,3.745211792E-1,2.320025482E0,-1.430874481E0,2.751397124E0
9.765178708E0,3.362008667E-1,3.027753754E0,-8.367599487E-1,3.159191515E0
9.775108708E0,3.894900513E-1,3.579656067E0,3.053649902E-2,3.600912736E0
9.785039708E0,6.578819275E-1,4.151466980E0,1.070424042E0,4.337429463E0
9.794969708E0,8.452922058E-1,4.687202911E0,2.049088898E0,5.184896851E0
9.804900708E0,8.879534912E-1,4.793032837E0,2.694247284E0,5.569613416E0
9.814830708E0,7.066804504E-1,4.241579590E0,3.161725159E0,5.337312119E0
9.824761708E0,5.963598633E-1,3.450325012E0,3.074306946E0,4.659586996E0
9.834691708E0,6.032455444E-1,2.470612335E0,2.497556305E0,3.564494073E0
9.844621708E0,8.837622070E-1,1.183588715E0,1.736538849E0,2.279799346E0
9.854552708E0,1.188528442E0,-3.797602844E-1,9.937834167E-1,1.595124826E0
9.864482708E0,1.256786499E0,-1.889820099E0,3.878434753E-1,2.302467127E0
9.874413708E0,9.874964905E-1,-3.157234497E0,-5.822891235E-2,3.308575161E0
9.884343708E0,3.457809448E-1,-4.284689941E0,-5.072950745E-1,4.328450144E0
9.894273708E0,-3.388952637E-1,-5.245990906E0,-1.193917236E0,5.390798545E0
9.904204708E0,-9.166937256E-1,-5.646707611E0,-1.742676086E0,5.980180112E0
9.914134708E0,-1.512754211E0,-5.523813171E0,-2.109712830E0,6.103427355E0
9.924065708E0,-1.931134186E0,-4.769831085E0,-2.131417694E0,5.569875152E0
9.933995708E0,-2.111808472E0,-3.616629181E0,-2.007475433E0,4.644319032E0
9.943925708E0,-1.737287292E0,-2.315085754E0,-1.962868195E0,3.497233297E0
9.953856708E0,-1.002914429E0,-8.367599487E-1,-1.819167023E0,2.239502896E0
9.963786708E0,-2.136058044E-1,7.231462097E-1,-1.422192535E0,1.609720314E0
9.973717708E0,5.918692017E-1,2.196831665E0,-8.367599487E-1,2.424158767E0
9.983647708E0,1.375040588E0,3.405867462E0,-2.125579834E-1,3.679110040E0
9.993578708E0,2.296075287E0,4.092938690E0,2.311193848E-1,4.698672686E0
1.000350871E1,3.203338623E0,4.075425110E0,2.125579834E-1,5.188029400E0
1.001343871E1,3.045417023E0,3.568728790E0,-6.239025879E-1,4.732826266E0
1.002336971E1,2.658172302E0,2.987637177E0,-1.760339355E0,4.369284900E0
1.003329971E1,2.519560547E0,3.486699371E0,-7.229965210E-1,4.362107498E0
1.004323071E1,9.532177734E-1,5.444777527E0,1.713786163E0,5.787165926E0
1.005316071E1,-1.303339691E0,1.051473450E1,-3.504212952E-1,1.060099670E1
1.006309071E1,-4.896617432E0,2.151775360E1,-5.532794495E0,2.275087685E1
1.007302171E1,-3.705993347E0,4.643658463E1,-1.475960724E1,4.886652007E1
1.008295171E1,-1.586401062E0,7.764398849E1,-3.227438507E0,7.772722803E1
1.009288271E1,-1.502814880E1,5.884548019E1,6.812782745E0,6.111505383E1
1.010281271E1,-8.652457123E0,2.355516678E1,-7.524253235E0,2.619781065E1
1.011274371E1,7.781717834E0,1.487591537E1,-1.275273056E1,2.108269735E1
1.012267371E1,1.671573944E1,1.897139877E1,-1.244886246E1,2.818340102E1
1.013260371E1,1.010084518E1,2.648831726E1,-1.059496765E1,3.026402756E1
1.014253471E1,1.160536652E0,2.669009766E1,-8.754245453E0,2.811307475E1
1.015246471E1,-1.029858398E0,2.209121109E1,-5.292544098E0,2.273968423E1
1.016239571E1,-3.019520874E0,1.961610809E1,-2.898572388E0,2.005768992E1
1.017232571E1,-4.967420197E0,1.829076416E1,-1.991907806E0,1.905767598E1
1.018225571E1,-5.858666840E0,1.644719788E1,-1.541494446E0,1.752742138E1
1.019218671E1,-6.292464752E0,1.400442764E1,-1.764081573E0,1.545416093E1
1.020211671E1,-5.501359863E0,1.226459564E1,-2.196532288E0,1.362020634E1
1.021204771E1,-3.415746918E0,1.085707260E1,-2.501747589E0,1.165341553E1
1.022197771E1,-6.810836792E-1,1.024873764E1,-2.572700043E0,1.058863937E1
1.023190771E1,1.557062073E0,9.858499146E0,-2.245330811E0,1.023014947E1
1.024183871E1,2.808459778E0,9.255552979E0,-1.322799225E0,9.762300193E0
1.025176871E1,3.468886414E0,8.527467041E0,-6.990463257E-1,9.232525811E0
1.026169971E1,2.546354828E0,7.874375153E0,-8.262817383E-2,8.276263310E0
1.027162971E1,1.351090393E0,6.408623199E0,5.203179932E-1,6.570131458E0
1.028156071E1,8.256829834E-1,4.644092560E0,1.082249451E-1,4.718162856E0
1.029149071E1,1.983375549E-1,2.912343750E0,-3.643423462E-1,2.941739154E0
1.030142071E1,-7.071295166E-1,1.842967529E0,-2.255809021E-1,1.986818615E0
1.031135171E1,-8.229885864E-1,1.467548218E0,-1.996847534E-1,1.694367724E0
1.032128171E1,-5.688171387E-1,1.446891174E0,-3.124003601E-1,1.585761960E0
1.033121271E1,-1.065184937E0,1.748064880E0,-3.844006348E-1,2.082813871E0
1.034114271E1,-1.161584473E0,2.126477966E0,-5.984555054E-1,2.495863782E0
1.035107271E1,-1.202898560E0,2.586471405E0,-6.972500610E-1,2.936487174E0
1.036100371E1,-1.228345642E0,3.340004425E0,-7.186555481E-1,3.630554830E0
1.037093371E1,-1.112486572E0,4.422852631E0,-7.415579224E-1,4.620515114E0
1.038086471E1,-8.970845032E-1,5.706283722E0,-7.595205688E-1,5.826088397E0
1.039079471E1,-7.331753540E-1,7.180268555E0,-8.252339172E-1,7.264627563E0
1.040072571E1,-7.095245361E-1,9.074878693E0,-9.306147766E-1,9.150021433E0
1.041065571E1,-6.363267517E-1,1.141301651E1,-1.006656647E0,1.147498214E1
1.042058571E1,-7.827223206E-1,1.397194519E1,-1.189725952E0,1.404433532E1
1.043051671E1,-9.764195251E-1,1.639360931E1,-1.573827209E0,1.649790149E1
1.044044671E1,-1.241518250E0,1.825798233E1,-1.926194458E0,1.840123668E1
1.045037771E1,-1.227148132E0,1.830543365E1,-1.876198425E0,1.844220470E1
1.046030771E1,-1.352886658E0,1.551763092E1,-1.206790466E0,1.562317237E1
1.047023771E1,-2.404449921E0,1.254331604E1,-2.544708252E-1,1.277422843E1
1.048016871E1,-2.547702026E0,1.065484314E1,-1.366658020E-1,1.095605520E1
1.049009871E1,-2.433040466E0,9.232800293E0,-4.336482239E-1,9.557841699E0
1.050002971E1,-2.168241119E0,8.136779480E0,-7.884104919E-1,8.457543435E0
1.050995971E1,-1.751657410E0,7.354356537E0,-1.193917236E0,7.653776984E0
1.051989071E1,-1.321601715E0,6.890171814E0,-1.525178375E0,7.179642595E0
1.052982071E1,-8.913963318E-1,6.653214569E0,-1.810335388E0,6.952493491E0
1.053975071E1,-4.986131287E-1,6.749015350E0,-2.052831116E0,7.071911965E0
1.054968171E1,-1.387614441E-1,7.283404083E0,-2.206711121E0,7.611622938E0
1.055961171E1,-2.170486450E-2,7.954757996E0,-2.122136993E0,8.232989207E0
1.056954271E1,-1.796264648E-2,8.482261047E0,-1.920506287E0,8.696977609E0
1.057947271E1,-2.118095398E-1,9.053323517E0,-1.684596863E0,9.211156093E0
1.058940271E1,-5.462141418E-1,9.708810425E0,-1.344354401E0,9.816651084E0
1.059933371E1,-9.641450500E-1,1.041234741E1,-9.472302246E-1,1.049970473E1
1.060926371E1,-1.319356384E0,1.105002136E1,-5.405259705E-1,1.114162653E1
1.061919471E1,-1.537153473E0,1.149534531E1,-2.133064270E-1,1.159962517E1
1.062912471E1,-1.599723358E0,1.164877625E1,-1.287322998E-2,1.175811501E1
1.063905471E1,-1.505120087E0,1.157153687E1,-2.888992310E-2,1.166904823E1
1.064898571E1,-1.411414948E0,1.130718658E1,-2.185455322E-1,1.139703131E1
1.065891571E1,-1.360969849E0,1.091021210E1,-4.528083801E-1,1.100409026E1
1.066884671E1,-1.386716309E0,1.046488815E1,-6.493496704E-1,1.057631889E1
1.067877671E1,-1.419198761E0,9.975256348E0,-8.738827515E-1,1.011353229E1
1.068870671E1,-1.542991333E0,9.411229248E0,-1.034798126E0,9.592854913E0
1.069863771E1,-1.781445465E0,8.821904755E0,-1.122066650E0,9.069651868E0
1.070856796E1,-2.077080688E0,8.344697113E0,-1.127754822E0,8.672950192E0
1.071849896E1,-2.437980194E0,8.102500763E0,-1.108744354E0,8.533673305E0
1.072842896E1,-2.868634644E0,8.061336365E0,-1.018931122E0,8.616984933E0
1.073835996E1,-3.126697998E0,8.145461426E0,-9.669891357E-1,8.778374007E0
1.074828996E1,-3.173400879E0,8.312663727E0,-9.891430664E-1,8.952611651E0
1.075821996E1,-3.229833527E0,8.603808289E0,-9.614506531E-1,9.240223430E0
1.076815096E1,-3.030448151E0,8.970545654E0,-9.858499146E-1,9.519779692E0
1.077808096E1,-2.523751831E0,9.171278229E0,-1.135089569E0,9.579670975E0
1.078801196E1,-1.972298584E0,9.275162201E0,-1.262474670E0,9.566213350E0
1.079794196E1,-1.504820709E0,9.521100769E0,-1.270557861E0,9.722662315E0
1.080787196E1,-1.127754822E0,9.864786072E0,-1.207838287E0,1.000223518E1
1.081780296E1,-8.649014282E-1,1.020098694E1,-1.073268127E0,1.029369193E1
1.082773296E1,-7.421566772E-1,1.051473450E1,-9.800120544E-1,1.058635262E1
1.083766396E1,-8.211923218E-1,1.056098831E1,-9.280700684E-1,1.063344464E1
1.084759396E1,-1.074465637E0,1.016161880E1,-8.946894836E-1,1.025736040E1
1.085752496E1,-1.290017395E0,9.648934937E0,-8.693920898E-1,9.773532263E0
1.086745496E1,-1.416504364E0,9.362730103E0,-8.767268372E-1,9.509776524E0
1.087738496E1,-1.506616974E0,9.242679749E0,-8.767268372E-1,9.405619256E0
1.088731596E1,-1.593735809E0,9.262438660E0,-9.108558655E-1,9.442585565E0
1.089724596E1,-1.717378693E0,9.336235199E0,-9.903405762E-1,9.544393733E0
1.090717696E1,-1.869761810E0,9.419162750E0,-1.057999878E0,9.661055837E0
1.091710696E1,-2.021246796E0,9.493558044E0,-1.097817078E0,9.768228360E0
1.092703696E1,-2.187251587E0,9.573192444E0,-1.079105988E0,9.878995536E0
1.093696796E1,-2.298919373E0,9.676627350E0,-9.877958679E-1,9.994893087E0
1.094689796E1,-2.334245911E0,9.757309570E0,-8.605604553E-1,1.006947657E1
1.095682896E1,-2.296374664E0,9.758806458E0,-7.656578064E-1,1.005454484E1
1.096675896E1,-2.204765167E0,9.741592255E0,-6.649172974E-1,1.001008112E1
1.097668896E1,-2.105521545E0,9.714797974E0,-6.027964783E-1,9.958608549E0
1.098661996E1,-2.045795746E0,9.595645752E0,-5.721102905E-1,9.827970687E0
1.099654996E1,-2.028731232E0,9.458680573E0,-5.417234802E-1,9.688955202E0
1.100648096E1,-2.068847809E0,9.419911194E0,-5.063969421E-1,9.657706561E0
1.101641096E1,-2.164199524E0,9.460776215E0,-5.608836365E-1,9.721349526E0
1.102634196E1,-2.277214508E0,9.514065399E0,-6.442602539E-1,9.803989882E0
1.103627196E1,-2.323019257E0,9.527986450E0,-7.312294006E-1,9.834309366E0
1.104620196E1,-2.310894470E0,9.543254700E0,-7.435038757E-1,9.847169214E0
1.105613296E1,-2.291135559E0,9.562564545E0,-6.727011108E-1,9.856189406E0
1.106606296E1,-2.290836182E0,9.646240540E0,-5.364843750E-1,9.929033309E0
1.107599396E1,-2.339035950E0,9.710157623E0,-3.927832031E-1,9.995625488E0
1.108592396E1,-2.472408600E0,9.718689880E0,-3.032693481E-1,1.003283158E1
1.109585396E1,-2.560575256E0,9.663005676E0,-2.588117981E-1,9.999860394E0
1.110578496E1,-2.601889343E0,9.624086609E0,-2.504292297E-1,9.972742151E0
1.111571496E1,-2.585722961E0,9.662855988E0,-3.222798157E-1,1.000802745E1
1.112564596E1,-2.572250977E0,9.673034821E0,-3.652404785E-1,1.001586134E1
1.113557596E1,-2.507136383E0,9.612710266E0,-3.974235535E-1,9.942226963E0
1.114550596E1,-2.380050659E0,9.524842987E0,-3.939807129E-1,9.825604097E0
1.115543696E1,-2.243684235E0,9.460476837E0,-4.004173279E-1,9.731139449E0
1.116536696E1,-2.114951935E0,9.425150299E0,-4.194277954E-1,9.668629661E0
1.117529796E1,-2.004331970E0,9.427245941E0,-4.391867065E-1,9.647963394E0
1.118522796E1,-1.938319244E0,9.462273102E0,-4.751119995E-1,9.670440794E0
1.119515896E1,-1.900897064E0,9.529333649E0,-4.951702881E-1,9.729686688E0
1.120508896E1,-1.932032318E0,9.572593689E0,-5.284011841E-1,9.779903201E0
1.121501896E1,-2.003284149E0,9.601333923E0,-5.622308350E-1,9.824197881E0
1.122494996E1,-2.049537964E0,9.623487854E0,-5.707630920E-1,9.855855866E0
1.123487996E1,-2.074985046E0,9.649833069E0,-6.062393188E-1,9.889002342E0
1.124481096E1,-2.070344696E0,9.621841278E0,-6.635700989E-1,9.864404798E0
1.125474096E1,-2.046394501E0,9.574689331E0,-7.035369873E-1,9.816179019E0
1.126467096E1,-1.966610413E0,9.562564545E0,-7.505392456E-1,9.791501741E0
1.127460196E1,-1.830992432E0,9.565408630E0,-7.758366394E-1,9.769928252E0
1.128453196E1,-1.708996124E0,9.572743378E0,-8.196954346E-1,9.758585150E0
1.129446296E1,-1.620530090E0,9.608968048E0,-8.241860962E-1,9.779451285E0
1.130439296E1,-1.585652618E0,9.641450500E0,-7.905061340E-1,9.802895589E0
1.131432296E1,-1.600471802E0,9.673783264E0,-7.467970276E-1,9.833681835E0
1.132425396E1,-1.682351532E0,9.688752136E0,-6.899153137E-1,9.857900779E0
1.133418396E1,-1.838027802E0,9.700278168E0,-6.291416931E-1,9.892904629E0
1.134411496E1,-2.016157379E0,9.772428131E0,-6.345304871E-1,9.998393426E0
1.135404496E1,-2.229314117E0,9.810598755E0,-7.117698669E-1,1.008584680E1
1.136397596E1,-2.359543304E0,9.668843536E0,-7.527845764E-1,9.981015207E0
1.137390596E1,-2.382146301E0,9.476942596E0,-7.720944214E-1,9.802203414E0
1.138383596E1,-2.334694977E0,9.290280762E0,-7.906558228E-1,9.611724814E0
1.139376696E1,-2.217638397E0,9.166039124E0,-8.035290527E-1,9.464663344E0
1.140369696E1,-2.063459015E0,9.117090912E0,-7.792794800E-1,9.380111210E0
1.141362796E1,-1.929487610E0,9.138646088E0,-7.563771057E-1,9.370692668E0
1.142355796E1,-1.835632782E0,9.269324341E0,-6.933581543E-1,9.474738359E0
1.143348796E1,-1.783990173E0,9.442214813E0,-6.542893982E-1,9.631517852E0
1.144341896E1,-1.771116943E0,9.582622833E0,-6.797364807E-1,9.768600579E0
1.145334896E1,-1.788630524E0,9.719138947E0,-6.911128235E-1,9.906487670E0
1.146327996E1,-1.810335388E0,9.858349457E0,-7.111711121E-1,1.004838955E1
1.147320996E1,-1.866768036E0,9.948162689E0,-7.497908020E-1,1.014952955E1
1.148314096E1,-1.949096832E0,1.000609222E1,-7.622149658E-1,1.022261374E1
1.149307096E1,-1.930834808E0,9.978848877E0,-7.975415039E-1,1.019517633E1
1.150300096E1,-1.906734924E0,9.954898682E0,-8.247848511E-1,1.016936163E1
1.151293196E1,-1.807790680E0,9.859546967E0,-8.681945801E-1,1.006143804E1
1.152286196E1,-1.685644684E0,9.728419647E0,-9.375004578E-1,9.917784730E0
1.153279296E1,-1.470991058E0,9.645192719E0,-1.019829254E0,9.809873036E0
1.154272296E1,-1.205892334E0,9.618548126E0,-1.061891785E0,9.751833599E0
1.155265296E1,-9.889933777E-1,9.637408905E0,-1.103954315E0,9.750716560E0
1.156258396E1,-8.318202209E-1,9.710157623E0,-1.099763031E0,9.807576901E0
1.157251396E1,-7.813751221E-1,9.773326263E0,-1.016835480E0,9.857099357E0
1.158244496E1,-8.572673035E-1,9.860594788E0,-9.093589783E-1,9.939475366E0
1.159237496E1,-1.065035248E0,9.901609497E0,-8.768765259E-1,9.997253781E0
1.160230496E1,-1.306333466E0,9.896370392E0,-8.610095215E-1,1.001928098E1
1.161223596E1,-1.537602539E0,9.850415955E0,-8.750802612E-1,1.000803085E1
1.162216596E1,-1.709894257E0,9.792486420E0,-9.455836487E-1,9.985522374E0
1.163209696E1,-1.810036011E0,9.717642059E0,-1.037043457E0,9.939026949E0
1.164202696E1,-1.850152588E0,9.614805908E0,-1.082698517E0,9.850877795E0
1.165195796E1,-1.805994415E0,9.500443726E0,-1.128952332E0,9.736250828E0
1.166188796E1,-1.720073090E0,9.421108704E0,-1.116528168E0,9.641710211E0
1.167181796E1,-1.632056122E0,9.377998352E0,-1.060993652E0,9.577899968E0
1.168174896E1,-1.622625732E0,9.385632477E0,-1.000968475E0,9.577314297E0
1.169167896E1,-1.642983398E0,9.431287537E0,-9.897418213E-1,9.624352857E0
1.170160996E1,-1.712888031E0,9.511670380E0,-9.566606140E-1,9.711902921E0
1.171153996E1,-1.788331146E0,9.526339874E0,-9.295669556E-1,9.737215948E0
1.172146996E1,-1.844464417E0,9.556576996E0,-9.416917419E-1,9.778394357E0
1.173140096E1,-1.913620605E0,9.566157074E0,-9.449848938E-1,9.801341818E0
1.174133096E1,-1.960323486E0,9.546248474E0,-9.216334534E-1,9.788929274E0
1.175126196E1,-1.999841309E0,9.560019836E0,-9.264234924E-1,9.810790234E0
1.176119196E1,-2.038610687E0,9.630672913E0,-9.270222473E-1,9.887626840E0
1.177112196E1,-2.099833374E0,9.695488129E0,-9.457333374E-1,9.965249711E0
1.178105296E1,-2.147883453E0,9.716145172E0,-9.550140381E-1,9.996445976E0
1.179098296E1,-2.168690186E0,9.708660736E0,-9.734257507E-1,9.995442366E0
1.180091396E1,-2.123184814E0,9.672735443E0,-9.614506531E-1,9.949578487E0
1.181084396E1,-2.053878937E0,9.620943146E0,-9.442364502E-1,9.882942283E0
1.182077496E1,-1.984872437E0,9.641749878E0,-9.376501465E-1,9.888490638E0
1.183070496E1,-1.912273407E0,9.684111786E0,-9.337582397E-1,9.915176000E0
1.184063496E1,-1.852098541E0,9.712402954E0,-9.687854004E-1,9.934766495E0
1.185056596E1,-1.799108734E0,9.760453033E0,-9.865983582E-1,9.973796267E0
1.186049596E1,-1.779798889E0,9.837842102E0,-1.034199371E0,1.005088999E1
1.187042696E1,-1.770967255E0,9.863139496E0,-1.079555054E0,1.007885335E1
1.188035696E1,-1.707948303E0,9.853559418E0,-1.070124664E0,1.005757861E1
1.189028696E1,-1.635798340E0,9.799222412E0,-1.019529877E0,9.986993404E0
1.190021796E1,-1.568588104E0,9.735604706E0,-9.701325989E-1,9.908765054E0
1.191014796E1,-1.513951721E0,9.729018402E0,-9.803114319E-1,9.894789507E0
1.192007896E1,-1.493294678E0,9.710756378E0,-9.756710815E-1,9.873229081E0
1.193000896E1,-1.469943237E0,9.646539917E0,-1.009351044E0,9.809956933E0
1.193993896E1,-1.463656311E0,9.569150848E0,-1.033899994E0,9.735496236E0
1.194986996E1,-1.497785339E0,9.515861664E0,-1.023122406E0,9.687195858E0
1.195979996E1,-1.549877014E0,9.486522675E0,-1.011895752E0,9.665410712E0
1.196973096E1,-1.627565460E0,9.504635010E0,-1.008003845E0,9.695521015E0
1.197966096E1,-1.691332855E0,9.465865631E0,-9.973759460E-1,9.667366640E0
1.198959196E1,-1.713037720E0,9.419761505E0,-9.912387085E-1,9.625432937E0
1.199952196E1,-1.695973206E0,9.401499481E0,-9.997709656E-1,9.605418241E0
1.200945196E1,-1.673220520E0,9.401200104E0,-9.994715881E-1,9.601102736E0
1.201938296E1,-1.691183167E0,9.413773956E0,-9.966275024E-1,9.616262631E0
1.202931296E1,-1.708247681E0,9.492210846E0,-9.979747009E-1,9.696191540E0
1.203924396E1,-1.743424530E0,9.594897308E0,-9.731263733E-1,9.800436643E0
1.204917396E1,-1.831890564E0,9.696685638E0,-9.427395630E-1,9.913137409E0
1.205910396E1,-1.967658234E0,9.752968597E0,-9.050180054E-1,9.990552186E0
1.206903496E1,-2.116598511E0,9.766889648E0,-8.846603394E-1,1.003268392E1
1.207896496E1,-2.202669525E0,9.693392487E0,-8.925938416E-1,9.980497718E0
1.208889596E1,-2.235301666E0,9.615554352E0,-8.918453979E-1,9.912156539E0
1.209882596E1,-2.220183105E0,9.526938629E0,-9.125024414E-1,9.824684899E0
1.210875596E1,-2.174528046E0,9.474248199E0,-9.160949707E-1,9.763666379E0
1.211868696E1,-2.095043335E0,9.464817810E0,-9.410929871E-1,9.739488629E0
1.212861696E1,-2.014211426E0,9.476643219E0,-9.939331055E-1,9.739184637E0
1.213854796E1,-1.943109283E0,9.516759796E0,-1.035845947E0,9.768181383E0
1.214847796E1,-1.873204651E0,9.596394196E0,-1.040635986E0,9.832731079E0
1.215840896E1,-1.842817841E0,9.717941437E0,-1.044527893E0,9.946124968E0
1.216833896E1,-1.809586945E0,9.764943695E0,-1.074914703E0,9.989202766E0
1.217826896E1,-1.736538849E0,9.777966614E0,-1.064586182E0,9.987869743E0
1.218819996E1,-1.626367950E0,9.761949921E0,-1.033450928E0,9.950314557E0
1.219812996E1,-1.525178375E0,9.702074432E0,-1.001267853E0,9.872130200E0
1.220806096E1,-1.433119812E0,9.645043030E0,-9.623487854E-1,9.798306110E0
1.221799096E1,-1.357976074E0,9.598639526E0,-9.151968384E-1,9.737328434E0
1.222792096E1,-1.341360626E0,9.546248474E0,-9.297166443E-1,9.684755097E0
1.223785196E1,-1.384470978E0,9.513766022E0,-9.413923645E-1,9.659954627E0
1.224778196E1,-1.484313354E0,9.543105011E0,-9.702822876E-1,9.706466252E0
1.225771296E1,-1.645079041E0,9.585616608E0,-1.004261627E0,9.777467577E0
1.226764296E1,-1.786983948E0,9.652078400E0,-1.044378204E0,9.871507225E0
1.227757296E1,-1.876348114E0,9.680668945E0,-1.041085052E0,9.915638737E0
1.228750396E1,-1.902244263E0,9.712103577E0,-1.003962250E0,9.947433303E0
1.229743396E1,-1.901046753E0,9.699380035E0,-9.470805359E-1,9.929195001E0
1.230736496E1,-1.857038269E0,9.630972290E0,-9.198371887E-1,9.851412023E0
1.231729496E1,-1.831142120E0,9.583071899E0,-8.743318176E-1,9.795550246E0
1.232722596E1,-1.829944611E0,9.562115479E0,-8.687933350E-1,9.774331259E0
1.233715596E1,-1.850152588E0,9.555080109E0,-8.919950867E-1,9.773345165E0
1.234708596E1,-1.879940643E0,9.578880615E0,-9.141490173E-1,9.804325530E0
1.235701696E1,-1.910477142E0,9.570947113E0,-9.292675781E-1,9.803901763E0
1.236694696E1,-1.907633057E0,9.549990692E0,-9.147477722E-1,9.781520822E0
1.237687796E1,-1.897603912E0,9.542356567E0,-8.812174988E-1,9.769033409E0
1.238680796E1,-1.876048737E0,9.585466919E0,-8.798703003E-1,9.806880578E0
1.239673796E1,-1.857637024E0,9.615404663E0,-8.928932190E-1,9.833823287E0
1.240666896E1,-1.835483093E0,9.592352600E0,-8.726852417E-1,9.805294800E0
1.241659896E1,-1.791175232E0,9.579479370E0,-8.725355530E-1,9.784480160E0
1.242652996E1,-1.733245697E0,9.568252716E0,-8.702902222E-1,9.762837997E0
1.243645996E1,-1.714684296E0,9.587712250E0,-8.514294434E-1,9.776978087E0
1.244638996E1,-1.709295502E0,9.628128204E0,-8.545729065E-1,9.815948181E0
1.245632096E1,-1.729204102E0,9.654623108E0,-8.511300659E-1,9.845116382E0
1.246625096E1,-1.763782196E0,9.687105560E0,-8.610095215E-1,9.883940468E0
1.247618196E1,-1.790576477E0,9.723928986E0,-8.560697937E-1,9.924404996E0
1.248611196E1,-1.814826050E0,9.732012177E0,-8.578660583E-1,9.936880233E0
1.249604296E1,-1.810036011E0,9.741592255E0,-8.707392883E-1,9.946508781E0
1.250597296E1,-1.796264648E0,9.698781281E0,-8.898994446E-1,9.903779381E0
1.251590296E1,-1.740879822E0,9.621092834E0,-8.827143860E-1,9.817090942E0
1.252583396E1,-1.673669586E0,9.577832794E0,-8.595126343E-1,9.760881768E0
1.253576396E1,-1.634451141E0,9.555229797E0,-8.361611938E-1,9.730005784E0
1.254569496E1,-1.631756744E0,9.563612366E0,-8.020321655E-1,9.734914851E0
1.255562496E1,-1.653012543E0,9.583820343E0,-8.015830994E-1,9.758309193E0
1.256555496E1,-1.686991882E0,9.613458710E0,-7.976911926E-1,9.792897488E0
1.257548596E1,-1.701062622E0,9.665400696E0,-8.029302979E-1,9.846739649E0
1.258541596E1,-1.738335114E0,9.707762604E0,-8.418493652E-1,9.898038901E0
1.259534696E1,-1.762884064E0,9.700727234E0,-8.699908447E-1,9.897916607E0
1.260527696E1,-1.761237488E0,9.699829102E0,-8.785231018E-1,9.897496902E0
1.261520696E1,-1.769919434E0,9.707463226E0,-8.592132568E-1,9.904832382E0
1.262513796E1,-1.787433014E0,9.715396729E0,-8.434959412E-1,9.914400424E0
1.263506796E1,-1.821711731E0,9.707163849E0,-8.262817383E-1,9.911125321E0
1.264499896E1,-1.844165039E0,9.658515015E0,-8.334667969E-1,9.868258402E0
1.265492896E1,-1.843566284E0,9.604627075E0,-8.545729065E-1,9.817224289E0
1.266485996E1,-1.812281342E0,9.530531158E0,-8.765771484E-1,9.740830320E0
1.267478996E1,-1.783092041E0,9.509724426E0,-8.934919739E-1,9.716614832E0
1.268471996E1,-1.772464142E0,9.531279602E0,-9.018745422E-1,9.736544442E0
1.269465096E1,-1.793719940E0,9.586215363E0,-9.020242310E-1,9.794212777E0
1.270458125E1,-1.801952820E0,9.671537933E0,-9.104067993E-1,9.880006098E0
1.271451225E1,-1.782792664E0,9.739795990E0,-9.256750488E-1,9.944790088E0
1.272444225E1,-1.784139862E0,9.745484161E0,-9.363029480E-1,9.951596847E0
1.273437225E1,-1.773961029E0,9.698481903E0,-9.464817810E-1,9.904711844E0
1.274430325E1,-1.763632507E0,9.639504547E0,-9.301657104E-1,9.843559101E0
1.275423325E1,-1.748513947E0,9.584269409E0,-9.057664490E-1,9.784474129E0
1.276416425E1,-1.759890289E0,9.551337891E0,-9.003776550E-1,9.753765901E0
1.277409425E1,-1.796264648E0,9.523346100E0,-9.267228699E-1,9.735476511E0
1.278402525E1,-1.804198151E0,9.515562286E0,-9.313632202E-1,9.729773586E0
1.279395525E1,-1.781295776E0,9.531878357E0,-9.413923645E-1,9.742481164E0
1.280388525E1,-1.767823792E0,9.563163300E0,-9.319619751E-1,9.769741367E0
1.281381625E1,-1.763482819E0,9.588909760E0,-9.175918579E-1,9.792805361E0
1.282374625E1,-1.766925659E0,9.636361084E0,-9.231303406E-1,9.840409079E0
1.283367725E1,-1.784738617E0,9.701026611E0,-9.189390564E-1,9.906546231E0
1.284360725E1,-1.783541107E0,9.755962372E0,-9.401948547E-1,9.962117599E0
1.285353725E1,-1.765129395E0,9.784103851E0,-9.421408081E-1,9.986590973E0
1.286346825E1,-1.745819550E0,9.764943695E0,-9.461824036E-1,9.964801674E0
1.287339825E1,-1.705104218E0,9.729617157E0,-9.494755554E-1,9.923423514E0
1.288332925E1,-1.710193634E0,9.707163849E0,-9.297166443E-1,9.900412380E0
1.289325925E1,-1.744771729E0,9.708361359E0,-9.291178894E-1,9.907561189E0
1.290318925E1,-1.788331146E0,9.685309296E0,-9.383985901E-1,9.893631101E0
1.291312025E1,-1.819316711E0,9.652228088E0,-9.635462952E-1,9.869338470E0
1.292305025E1,-1.828298035E0,9.636061707E0,-9.791139221E-1,9.856724760E0
1.293298125E1,-1.823657684E0,9.630822601E0,-9.963281250E-1,9.852468780E0
1.294291125E1,-1.803300018E0,9.598489838E0,-9.785151672E-1,9.815314058E0
1.295284225E1,-1.763183441E0,9.556576996E0,-9.731263733E-1,9.766470942E0
1.296277225E1,-1.716480560E0,9.537865906E0,-9.613009644E-1,9.738649347E0
1.297270225E1,-1.672921143E0,9.563163300E0,-9.469308472E-1,9.754457211E0
1.298263325E1,-1.639540558E0,9.571246490E0,-9.463320923E-1,9.756659113E0
1.299256325E1,-1.644180908E0,9.572893066E0,-9.300160217E-1,9.757486476E0
1.300249425E1,-1.682950287E0,9.584718475E0,-9.092092896E-1,9.773730682E0
1.301242425E1,-1.745370483E0,9.648785248E0,-8.990304565E-1,9.846503473E0
1.302235425E1,-1.817221069E0,9.695188751E0,-9.232800293E-1,9.907140019E0
1.303228525E1,-1.876198425E0,9.708660736E0,-9.527687073E-1,9.934081841E0
1.304221525E1,-1.895957336E0,9.692344666E0,-9.885443115E-1,9.925392647E0
1.305214625E1,-1.903741150E0,9.670639801E0,-9.824070740E-1,9.905080928E0
1.306207625E1,-1.878144379E0,9.634115753E0,-9.398954773E-1,9.860376066E0
1.307200625E1,-1.856289825E0,9.625733185E0,-8.846603394E-1,9.842925133E0
1.308193725E1,-1.822759552E0,9.635912018E0,-8.482859802E-1,9.843416170E0
1.309186725E1,-1.792223053E0,9.655221863E0,-8.497828674E-1,9.856850593E0
1.310179825E1,-1.773212585E0,9.636959839E0,-8.680448914E-1,9.837112368E0
1.311172825E1,-1.744472351E0,9.599537659E0,-8.876541138E-1,9.797052458E0
1.312165925E1,-1.739233246E0,9.563762054E0,-8.903485107E-1,9.761311254E0
1.313158925E1,-1.741478577E0,9.528285828E0,-8.741821289E-1,9.725490879E0
1.314151925E1,-1.739981689E0,9.502988434E0,-8.689430237E-1,9.699968424E0
1.315145025E1,-1.737436981E0,9.507329407E0,-8.517288208E-1,9.702239004E0
1.316138025E1,-1.745819550E0,9.547296295E0,-8.809181213E-1,9.745499945E0
1.317131125E1,-1.771715698E0,9.546847229E0,-9.128018188E-1,9.752665056E0
1.318124125E1,-1.792372742E0,9.552535400E0,-8.969348145E-1,9.760534037E0
1.319117125E1,-1.815574493E0,9.573192444E0,-8.756790161E-1,9.783104724E0
1.320110225E1,-1.844913483E0,9.575288086E0,-8.569679260E-1,9.788985735E0
1.321103225E1,-1.864073639E0,9.594148865E0,-8.140072632E-1,9.807398778E0
1.322096325E1,-1.882335663E0,9.603878632E0,-7.746391296E-1,9.817216413E0
1.323089325E1,-1.879940643E0,9.618548126E0,-7.792794800E-1,9.831476053E0
1.324082325E1,-1.870061188E0,9.607770538E0,-7.822732544E-1,9.819283834E0
1.325075425E1,-1.863325195E0,9.589807892E0,-7.875123596E-1,9.800845469E0
1.326068425E1,-1.855990448E0,9.561217346E0,-7.819738770E-1,9.771031718E0
1.327061525E1,-1.832938385E0,9.549691315E0,-7.661068726E-1,9.754136921E0
1.328054525E1,-1.804198151E0,9.547146606E0,-7.587721252E-1,9.745710566E0
1.329047625E1,-1.788929901E0,9.588610382E0,-7.476951599E-1,9.782676899E0
1.330040625E1,-1.782044220E0,9.644294586E0,-7.424560547E-1,9.835615927E0
1.331033625E1,-1.781744843E0,9.691446533E0,-7.484436035E-1,9.882252700E0
1.332026725E1,-1.782942352E0,9.715845795E0,-7.372169495E-1,9.905555601E0
1.333019725E1,-1.775457916E0,9.721983032E0,-7.505392456E-1,9.911231712E0
1.334012825E1,-1.750459900E0,9.725725250E0,-7.674540710E-1,9.911751977E0
1.335005825E1,-1.719624023E0,9.702523499E0,-7.725434875E-1,9.883971492E0
1.335998825E1,-1.683698730E0,9.683513031E0,-7.783813477E-1,9.859571165E0
1.336991925E1,-1.632205811E0,9.636660461E0,-7.888595581E-1,9.805693247E0
1.337984925E1,-1.591939545E0,9.612560577E0,-7.848179626E-1,9.775046373E0
1.338978025E1,-1.573827209E0,9.576036530E0,-7.948471069E-1,9.737001059E0
1.339971025E1,-1.553469543E0,9.536069641E0,-7.921527100E-1,9.694194022E0
1.340964025E1,-1.541045380E0,9.503437500E0,-7.899073792E-1,9.659922300E0
1.341957125E1,-1.544039154E0,9.463320923E0,-7.912545776E-1,9.621048987E0
1.342950125E1,-1.567989349E0,9.439670105E0,-8.029302979E-1,9.602638146E0
1.343943225E1,-1.616488495E0,9.470655670E0,-8.238867188E-1,9.642880441E0
1.344936225E1,-1.684147797E0,9.551936646E0,-8.222401428E-1,9.734060116E0
1.345929325E1,-1.778900757E0,9.630074158E0,-8.081694031E-1,9.826288922E0
1.346922325E1,-1.838177490E0,9.706565094E0,-7.803273010E-1,9.909854343E0
1.347915325E1,-1.897005157E0,9.744436340E0,-7.201524353E-1,9.953456068E0
1.348908425E1,-1.926344147E0,9.769284668E0,-6.515950012E-1,9.978692336E0
1.349901425E1,-1.951192474E0,9.766290894E0,-6.071374512E-1,9.977785615E0
1.350894525E1,-1.984423370E0,9.716294861E0,-6.038442993E-1,9.935237786E0
1.351887525E1,-2.015259247E0,9.630373535E0,-6.095324707E-1,9.857834148E0
1.352880525E1,-2.035766602E0,9.566007385E0,-6.385720825E-1,9.801051844E0
1.353873625E1,-2.051932983E0,9.546547852E0,-6.620732117E-1,9.786998814E0
1.354866625E1,-2.079625397E0,9.549541626E0,-6.803352356E-1,9.797011947E0
1.355859725E1,-2.120340729E0,9.564660187E0,-6.827302551E-1,9.820625738E0
1.356852725E1,-2.145638123E0,9.538614349E0,-6.825805664E-1,9.800757261E0
1.357845825E1,-2.162852325E0,9.528585205E0,-6.608757019E-1,9.793294792E0
1.358838825E1,-2.196532288E0,9.511520691E0,-6.753955078E-1,9.785189780E0
1.359831825E1,-2.191293182E0,9.479786682E0,-6.617738342E-1,9.752233896E0
1.360824925E1,-2.148033142E0,9.496402130E0,-6.695576477E-1,9.759303625E0
1.361817925E1,-2.121388550E0,9.557175751E0,-6.767427063E-1,9.813148241E0
1.362811025E1,-2.128723297E0,9.624236298E0,-6.923103333E-1,9.881127506E0
1.363804025E1,-2.145338745E0,9.686656494E0,-7.180567932E-1,9.947331196E0
1.364797025E1,-2.141895905E0,9.753417664E0,-7.767347717E-1,1.001599676E1
1.365790125E1,-2.092498627E0,9.863887939E0,-8.628057861E-1,1.012024059E1
1.366783125E1,-2.004481659E0,9.944869537E0,-9.098080444E-1,1.018558430E1
1.367776225E1,-1.923949127E0,9.938283234E0,-9.388476562E-1,1.016624261E1
1.368769225E1,-1.816921692E0,9.874515839E0,-9.535171509E-1,1.008545797E1
1.369762225E1,-1.702260132E0,9.765243073E0,-9.854008484E-1,9.961359177E0
1.370755346E1,-1.592837677E0,9.624685364E0,-1.068777466E0,9.813968896E0
1.371748346E1,-1.445394287E0,9.458830261E0,-1.144370270E0,9.636815754E0
1.372741446E1,-1.277293854E0,9.307045898E0,-1.170266418E0,9.466895290E0
1.373734446E1,-1.137933655E0,9.184450836E0,-1.178798676E0,9.329447812E0
1.374727546E1,-1.078956299E0,9.138047333E0,-1.130598907E0,9.270723253E0
1.375720546E1,-1.121318207E0,9.209448853E0,-9.922865295E-1,9.330377015E0
1.376713546E1,-1.248104553E0,9.410630493E0,-8.231382751E-1,9.528656142E0
1.377706646E1,-1.412163391E0,9.631720734E0,-6.800358582E-1,9.758416803E0
1.378699646E1,-1.486259308E0,9.768835602E0,-6.098318481E-1,9.900051042E0
1.379692746E1,-1.462309113E0,9.747430115E0,-6.243516541E-1,9.876262287E0
1.380685746E1,-1.364562378E0,9.594597931E0,-7.423063660E-1,9.719534900E0
1.381678746E1,-1.223405914E0,9.327553253E0,-8.699908447E-1,9.447584654E0
1.382671846E1,-1.094673615E0,8.977730713E0,-8.870553589E-1,9.087619396E0
1.383664846E1,-1.094074860E0,8.614585876E0,-7.849676514E-1,8.719189402E0
1.384657946E1,-1.225351868E0,8.299341431E0,-5.403762817E-1,8.406697444E0
1.385650946E1,-1.405577087E0,8.024962006E0,-2.942880249E-1,8.152439364E0
1.386643946E1,-1.657802582E0,7.655380554E0,-2.559677124E-2,7.832867676E0
1.387637046E1,-1.777703247E0,7.042704620E0,1.043330383E-1,7.264351491E0
1.388630046E1,-1.701960754E0,6.264772339E0,-1.607656860E-1,6.493834651E0
1.389623146E1,-1.305135956E0,5.554499359E0,-7.515870667E-1,5.755060913E0
1.390616146E1,-6.390211487E-1,5.068160706E0,-1.352736969E0,5.284363564E0
1.391609246E1,3.583547974E-1,4.680616608E0,-1.671573944E0,4.983046201E0
1.392602246E1,1.605112152E0,4.244124298E0,-1.631008301E0,4.821738707E0
1.393595246E1,2.399659882E0,4.204307098E0,-1.639390869E0,5.110985047E0
1.394588346E1,1.988764343E0,4.406087494E0,-1.283880157E0,5.001713594E0
1.395581346E1,1.064286804E0,4.190386047E0,-5.617817688E-1,4.359775268E0
1.396574446E1,2.360591125E-1,3.555556183E0,2.589614868E-2,3.563477836E0
1.397567446E1,-3.836521912E-1,2.798131256E0,2.365081787E-2,2.824409123E0
1.398560446E1,-7.461982727E-1,2.619103546E0,-8.764274597E-1,2.860881043E0
1.399553546E1,-1.059047699E0,3.006647644E0,-2.170785828E0,3.856659590E0
1.400546546E1,-1.306333466E0,3.528911591E0,-3.712280273E0,5.285900961E0
1.401539646E1,-1.229243774E0,4.923112335E0,-5.306165771E0,7.341898291E0
1.402532646E1,-1.002315674E0,7.580835571E0,-6.427483978E0,9.989307031E0
1.403525746E1,-3.348536682E-1,1.074315948E1,-7.065307617E0,1.286258817E1
1.404518746E1,1.493893433E0,1.214200058E1,-7.038363647E0,1.411376840E1
1.405511746E1,3.616778870E0,1.152498367E1,-6.086044006E0,1.352576318E1
1.406504846E1,4.637206879E0,1.110480743E1,-5.325026550E0,1.315964831E1
1.407497846E1,4.744683380E0,1.081860260E1,-5.650300140E0,1.309504006E1
1.408490946E1,4.326004028E0,1.120929016E1,-6.152356110E0,1.349866595E1
1.409483946E1,3.478616180E0,1.179696808E1,-5.972430267E0,1.367256924E1
1.410476946E1,2.709964600E0,1.247401016E1,-5.548661499E0,1.391878163E1
1.411470046E1,2.010169830E0,1.335792206E1,-5.262756042E0,1.449729166E1
1.412463046E1,1.343306580E0,1.436128555E1,-5.216502228E0,1.533828187E1
1.413456146E1,8.987310791E-1,1.493549149E1,-5.813311157E0,1.605214036E1
1.414449146E1,5.447172546E-1,1.506332565E1,-6.577023010E0,1.644559906E1
1.415442146E1,1.850152588E-1,1.557376419E1,-7.595804443E0,1.732837577E1
1.416435246E1,8.756790161E-2,1.623194550E1,-8.734636230E0,1.843305707E1
1.417428246E1,3.632945251E-1,1.687351135E1,-9.467212830E0,1.935136913E1
1.418421346E1,1.252894592E0,1.785427185E1,-9.803713074E0,2.040729179E1
1.419414346E1,2.258353729E0,1.892724060E1,-9.715845795E0,2.139481848E1
1.420407446E1,2.964734802E0,2.009990204E1,-9.818681946E0,2.256550973E1
1.421400446E1,3.784579926E0,2.138512939E1,-1.026191025E1,2.401985858E1
1.422393446E1,4.633913727E0,2.279489777E1,-1.073013657E1,2.561672015E1
1.423386546E1,5.242847443E0,2.390738434E1,-1.124731110E1,2.693608142E1
1.424379546E1,5.341641998E0,2.466061798E1,-1.202898560E1,2.795309845E1
1.425372646E1,4.646038513E0,2.481015701E1,-1.300136353E1,2.839304525E1
1.426365646E1,3.683839417E0,2.503903107E1,-1.345342346E1,2.866214145E1
1.427358646E1,2.820135498E0,2.553045914E1,-1.318024155E1,2.886998918E1
1.428351746E1,2.093845825E0,2.621348877E1,-1.287577469E1,2.927997195E1
1.429344746E1,1.501228180E0,2.695639389E1,-1.247266296E1,2.974000973E1
1.430337846E1,8.102650452E-1,2.711925522E1,-1.112800919E1,2.932478681E1
1.431330846E1,-1.224453735E-1,2.593731308E1,-8.668174438E0,2.734769553E1
1.432323846E1,-1.346450043E0,2.410272812E1,-6.027216339E0,2.488135381E1
1.433316946E1,-3.246299286E0,2.140743301E1,-4.120780792E0,2.204081400E1
1.434309946E1,-5.330415344E0,1.832369568E1,-2.938090210E0,1.930812070E1
1.435303046E1,-5.663622437E0,1.535476959E1,-1.618135071E0,1.644578759E1
1.436296046E1,-3.959266663E0,1.137589371E1,3.513194275E-1,1.205031848E1
1.437289146E1,-2.505938873E0,7.475454712E0,2.266736298E0,8.203672728E0
1.438282146E1,-2.206711121E0,3.776347046E0,4.905598755E0,6.572310866E0
1.439275146E1,-2.387385406E0,-8.369096375E-1,8.725954285E0,9.085279577E0
1.440268246E1,-6.499484253E-1,-4.849914551E0,9.724976807E0,1.088665596E1
1.441261246E1,2.856958923E0,-7.928263092E0,7.491022339E0,1.127541510E1
1.442254346E1,3.210673370E0,-1.092952194E1,5.089416504E0,1.247657941E1
1.443247346E1,4.106111298E0,-1.561178513E1,1.864073639E0,1.625000786E1
1.444240346E1,5.522465973E0,-1.610126724E1,-1.839225311E0,1.712107435E1
1.445233446E1,5.738017731E0,-1.046803162E1,-4.058510284E0,1.260857007E1
1.446226446E1,6.825655975E0,-6.981631622E0,-6.154451752E0,1.154166522E1
1.447219546E1,7.293582916E0,-5.846392365E0,-7.965984650E0,1.228143179E1
1.448212546E1,3.264561310E0,-3.593128052E0,-6.961573334E0,8.487133381E0
1.449205546E1,4.698728943E-1,-9.282197571E-1,-2.973865814E0,3.150595235E0
1.450198646E1,-4.728666687E-1,9.207353210E-1,9.807604980E-1,1.425919904E0
1.451191646E1,-6.316864014E-1,3.811074829E0,3.525768127E0,5.230139573E0
1.452184746E1,-1.181792450E0,6.028114471E0,5.171595612E0,8.029956329E0
1.453177746E1,-2.652035065E0,7.245383148E0,6.677913208E0,1.020408701E1
1.454170846E1,-4.189338226E0,8.516839142E0,6.165379028E0,1.131808298E1
1.455163846E1,-4.933141479E0,9.377848663E0,3.628454590E0,1.120025058E1
1.456156846E1,-5.350623322E0,7.940537567E0,8.557704163E-1,9.613201849E0
1.457149946E1,-5.143154755E0,5.973478088E0,-4.638853455E-1,7.896180780E0
1.458142946E1,-4.002377014E0,4.039649506E0,-5.164260864E-1,5.710033782E0
1.459136046E1,-2.023342438E0,1.619033203E0,-4.035607910E-1,2.622602609E0
1.460129046E1,-1.323248291E-1,-9.783654785E-1,-2.851570129E-1,1.027629988E0
1.461122046E1,1.944755859E0,-3.926035767E0,-6.309379578E-1,4.426501429E0
1.462115146E1,3.259471893E0,-6.072122955E0,-9.636959839E-1,6.958702764E0
1.463108146E1,3.953578491E0,-6.980434113E0,-5.206173706E-1,8.039171956E0
1.464101246E1,4.766088867E0,-6.866520996E0,3.924838257E-1,8.367721149E0
1.465094246E1,4.178860016E0,-5.916596375E0,8.006849670E-1,7.287666301E0
1.466087346E1,2.442171478E0,-4.427343292E0,8.625064087E-1,5.129277479E0
1.467080346E1,1.114582214E0,-3.200644226E0,5.604345703E-1,3.435186150E0
1.468073346E1,1.026864624E-1,-2.058369598E0,4.182302856E-1,2.102937585E0
1.469066446E1,-4.131408691E-1,-9.151968384E-1,4.864883423E-1,1.115769482E0
1.470059446E1,-7.095245361E-1,1.809736633E-1,5.254074097E-1,9.012377491E-1
1.471052571E1,-8.660989380E-1,1.323098602E0,2.080673218E-1,1.594995076E0
1.472045571E1,-7.765850830E-1,2.465073853E0,-3.591032410E-1,2.609334901E0
1.473038571E1,-4.578977966E-1,3.432661743E0,-1.080153809E0,3.627612064E0
1.474031671E1,-2.835104370E-1,4.016597443E0,-1.647773438E0,4.350699999E0
1.475024671E1,-2.335144043E-1,4.111500092E0,-1.990410919E0,4.573914910E0
1.476017771E1,2.933898926E-1,3.908671875E0,-2.085612946E0,4.439997164E0
1.477010771E1,1.256636810E0,3.511547699E0,-1.837129669E0,4.157541189E0
1.478003871E1,2.174827423E0,2.673590240E0,-1.454225922E0,3.740686050E0
1.478996871E1,2.834804993E0,1.453627167E0,-1.013392639E0,3.343069836E0
1.479989871E1,3.038681030E0,2.395019531E-1,-1.000369720E0,3.208065331E0
1.480982971E1,2.805316315E0,-4.647834778E-1,-1.340013428E0,3.143478852E0
1.481975971E1,2.169139252E0,-3.818559265E-1,-3.284170532E-1,2.226844584E0
1.482969071E1,1.481918335E-1,3.233276367E-1,7.587721252E-1,8.379956553E-1
1.483962071E1,-7.749385071E-1,3.710484009E0,-2.901117096E0,4.773332345E0
1.484955071E1,-2.188000031E0,1.209709396E1,-4.786596222E0,1.319236635E1
1.485948171E1,-4.962929535E0,2.313514023E1,-9.133406982E0,2.536305396E1
1.486941171E1,-2.830613708E0,4.665408234E1,-1.602088440E1,4.940935650E1
1.487934271E1,-1.245859222E0,7.795698761E1,-5.304369507E0,7.814717153E1
1.488927271E1,-2.506672348E1,7.092341400E1,8.047415314E0,7.565204672E1
1.489920271E1,-5.407055969E0,3.335064697E1,8.508306885E-1,3.379683152E1
1.490913371E1,8.712931366E0,8.475375366E0,-5.496569824E0,1.334014394E1
1.491906371E1,6.217171326E0,5.080135803E0,-1.470332428E1,1.675257425E1
1.492899471E1,1.278491364E0,1.647803375E1,-1.409483963E1,2.172152482E1
1.493892471E1,1.429527283E0,1.950923035E1,-8.212372284E0,2.121548198E1
1.494885471E1,1.784588928E0,2.066422852E1,-4.388573914E0,2.120034619E1
1.495878571E1,-1.706900482E0,2.133378616E1,-5.013823700E0,2.198140963E1
1.496871571E1,-4.290976868E0,2.263038986E1,-4.200714569E0,2.341352239E1
1.497864671E1,-4.384981384E0,2.283531372E1,-7.432044983E-1,2.326439269E1
1.498857671E1,-3.917952576E0,1.949920120E1,1.284329224E-1,1.988933621E1
1.499850771E1,-4.221221924E0,1.486618561E1,1.176553345E-1,1.545432081E1
1.500843771E1,-3.084036713E0,1.146660507E1,-1.484612732E0,1.196655294E1
1.501836771E1,-8.161029053E-1,1.131781448E1,-2.630629578E0,1.164813979E1
1.502829871E1,-3.023712158E-2,1.197824112E1,-2.769989777E0,1.229438969E1
1.503822871E1,-1.434017944E-1,1.024065445E1,-1.648671570E0,1.037350884E1
1.504815971E1,-4.041595459E-2,8.443940735E0,-3.403921509E-1,8.450895538E0
1.505808971E1,-2.627037048E-1,6.982080688E0,9.271719360E-1,7.048270126E0
1.506802071E1,-1.188528442E-1,5.323978729E0,2.480192413E0,5.874540826E0
1.507795071E1,-5.418731689E-2,3.382815399E0,2.301613770E0,4.091919138E0
1.508788071E1,-3.906875610E-2,1.332229614E0,-3.463796997E-1,1.377076980E0
1.509781171E1,-3.329077148E-1,-1.252894592E-1,-2.647394714E0,2.671183964E0
1.510774171E1,-9.448352051E-1,-8.000862122E-1,-3.808679810E0,4.004858725E0
1.511767271E1,-1.463057556E0,-4.993615723E-1,-4.215384064E0,4.489917839E0
1.512760271E1,-1.632804565E0,1.796264648E-3,-3.729344788E0,4.071125952E0
1.513753271E1,-1.208287354E0,5.209167480E-2,-2.902314606E0,3.144217222E0
1.514746371E1,-8.680448914E-1,6.583309937E-1,-2.296524353E0,2.541835112E0
1.515739371E1,-1.101708984E0,1.891316986E0,-1.654808807E0,2.743945119E0
1.516732471E1,-1.786684570E0,3.725303192E0,-8.714877319E-1,4.222513054E0
1.517725471E1,-2.341880035E0,6.472989349E0,-2.559677124E-2,6.883650805E0
1.518718471E1,-2.577639771E0,9.925859070E0,3.234773254E-1,1.026019213E1
1.519711571E1,-2.493514709E0,1.413375870E1,-1.510359192E-1,1.435282420E1
1.520704571E1,-2.065105591E0,1.845257767E1,-1.318308563E0,1.861451641E1
1.521697671E1,-1.397942963E0,2.149140839E1,-2.362387390E0,2.166600455E1
1.522690671E1,-1.340462494E0,2.030302963E1,-2.033670959E0,2.044861045E1
1.523683771E1,-2.597248993E0,1.524205399E1,-9.711804199E-1,1.549222719E1
1.524676771E1,-3.078498230E0,1.140119110E1,-1.262324982E0,1.187677457E1
1.525669771E1,-2.813100128E0,8.775800629E0,-2.135908356E0,9.459932003E0
1.526662871E1,-2.331701202E0,6.819818115E0,-2.366578674E0,7.586003180E0
1.527655871E1,-1.683249664E0,5.645510101E0,-2.380050659E0,6.353719767E0
1.528648971E1,-1.001118164E0,5.211562500E0,-2.192790070E0,5.742033573E0
1.529641971E1,-4.040098572E-1,5.518125000E0,-1.792522430E0,5.816017894E0
1.530634971E1,-1.112187195E-1,6.286477203E0,-1.507365417E0,6.465625703E0
1.531628071E1,2.769241333E-2,7.009922791E0,-1.414708099E0,7.151306412E0
1.532621071E1,4.176315308E-2,7.622299347E0,-1.387464752E0,7.747660933E0
1.533614171E1,-1.029858398E-1,8.311166840E0,-1.256636810E0,8.406261737E0
1.534607171E1,-3.941304016E-1,9.149573364E0,-9.895921326E-1,9.211369285E0
1.535600271E1,-7.484436035E-1,1.007689499E1,-6.724017334E-1,1.012699879E1
1.536593271E1,-1.158740387E0,1.091649902E1,-3.942800903E-1,1.098490269E1
1.537586271E1,-1.619781647E0,1.156884247E1,-2.948867798E-1,1.168540829E1
1.538579371E1,-1.928888855E0,1.190294769E1,-2.230361938E-1,1.206028694E1
1.539572371E1,-2.042053528E0,1.186148392E1,-2.463876343E-1,1.203850033E1
1.540565471E1,-1.973047028E0,1.148337021E1,-3.303630066E-1,1.165632213E1
1.541558471E1,-1.831591187E0,1.091155930E1,-4.652325439E-1,1.107399178E1
1.542551471E1,-1.691931610E0,1.032388138E1,-6.509962463E-1,1.048183931E1
1.543544571E1,-1.584305420E0,9.718240814E0,-8.370593262E-1,9.882049206E0
1.544537571E1,-1.473835144E0,9.136849823E0,-1.018631744E0,9.310844503E0
1.545530671E1,-1.416803741E0,8.700058136E0,-1.199455719E0,8.895900091E0
1.546523671E1,-1.419348450E0,8.454119568E0,-1.418150940E0,8.688949291E0
1.547516671E1,-1.443298645E0,8.405171356E0,-1.694476318E0,8.694898878E0
1.548509771E1,-1.462758179E0,8.523126068E0,-1.827848969E0,8.838799201E0
1.549502771E1,-1.513951721E0,8.776249695E0,-1.683549042E0,9.063605568E0
1.550495871E1,-1.517544250E0,9.033714294E0,-1.358874207E0,9.260533117E0
1.551488871E1,-1.468446350E0,9.351802826E0,-9.771679688E-1,9.516691022E0
1.552481871E1,-1.388063507E0,9.677525482E0,-6.065386963E-1,9.795361604E0
1.553474971E1,-1.380130005E0,9.945168915E0,-3.106040955E-1,1.004527842E1
1.554467971E1,-1.492695923E0,1.013856674E1,-9.624984741E-2,1.024831404E1
1.555461071E1,-1.752705231E0,1.027104126E1,5.538482666E-2,1.041966082E1
1.556454071E1,-2.041903839E0,1.028316605E1,1.149609375E-1,1.048456443E1
1.557447171E1,-2.307301941E0,1.016655853E1,3.008743286E-2,1.042513597E1
1.558440171E1,-2.507286072E0,9.976004791E0,-1.061293030E-1,1.028680798E1
1.559433171E1,-2.694546661E0,9.736951904E0,-2.095642090E-1,1.010508443E1
1.560426271E1,-2.818937988E0,9.552685089E0,-2.576142883E-1,9.963260958E0
1.561419271E1,-2.852767639E0,9.389225006E0,-2.921923828E-1,9.817393025E0
1.562412371E1,-2.852767639E0,9.227561188E0,-3.370989990E-1,9.664357424E0
1.563405371E1,-2.829266510E0,9.080866241E0,-3.713777161E-1,9.518655477E0
1.564398371E1,-2.764900360E0,8.947493591E0,-3.721261597E-1,9.372341940E0
1.565391471E1,-2.662363586E0,8.866062927E0,-3.502716064E-1,9.263797380E0
1.566384471E1,-2.553390198E0,8.900341644E0,-3.793112183E-1,9.267133316E0
1.567377571E1,-2.450404358E0,9.022637329E0,-4.108955383E-1,9.358488181E0
1.568370571E1,-2.404000854E0,9.186247101E0,-4.390370178E-1,9.505740866E0
1.569363671E1,-2.396366730E0,9.322613525E0,-4.508624268E-1,9.636232323E0
1.570356671E1,-2.387235718E0,9.449848938E0,-4.480183411E-1,9.757010800E0
1.571349671E1,-2.362237701E0,9.611363068E0,-4.224215698E-1,9.906407369E0
1.572342771E1,-2.319875793E0,9.803264008E0,-3.727249146E-1,1.008090932E1
1.573335771E1,-2.258802795E0,9.897268524E0,-3.529660034E-1,1.015788853E1
1.574328871E1,-2.142494659E0,9.845176849E0,-3.900888062E-1,1.008315228E1
1.575321871E1,-1.928888855E0,9.694889374E0,-4.430786133E-1,9.894837585E0
1.576314871E1,-1.639690247E0,9.537716217E0,-4.514611816E-1,9.688159368E0
1.577307971E1,-1.364412689E0,9.455686798E0,-3.899391174E-1,9.561573475E0
1.578300971E1,-1.171763306E0,9.442514191E0,-2.790197754E-1,9.519031228E0
1.579294071E1,-1.062041473E0,9.445807343E0,-1.276844788E-1,9.506182818E0
1.580287071E1,-1.062340851E0,9.490713959E0,-2.993774414E-3,9.549985785E0
1.581280171E1,-1.165177002E0,9.603279877E0,7.185058594E-2,9.673974589E0
1.582273171E1,-1.319356384E0,9.730964355E0,5.688171387E-2,9.820163139E0
1.583266171E1,-1.512454834E0,9.858648834E0,-3.442840576E-3,9.973990591E0
1.584259271E1,-1.661395111E0,9.923164673E0,-5.972579956E-2,1.006146103E1
1.585252271E1,-1.793869629E0,9.909093933E0,-9.714797974E-2,1.007062801E1
1.586245371E1,-1.882185974E0,9.939480743E0,-1.321751404E-1,1.011698432E1
1.587238371E1,-1.918410645E0,9.953401794E0,-1.345701599E-1,1.013748567E1
1.588231371E1,-1.910776520E0,9.908944244E0,-1.269360352E-1,1.009229190E1
1.589224471E1,-1.874252472E0,9.802216187E0,-1.429527283E-1,9.980816599E0
1.590217471E1,-1.859582977E0,9.728419647E0,-2.107617188E-1,9.906796565E0
1.591210571E1,-1.852547607E0,9.685758362E0,-2.950364685E-1,9.865743469E0
1.592203571E1,-1.872905273E0,9.688153381E0,-3.451821899E-1,9.873562723E0
1.593196571E1,-1.955982513E0,9.657916260E0,-3.628454590E-1,9.860672944E0
1.594189671E1,-2.090103607E0,9.630223846E0,-3.312611389E-1,9.859993832E0
1.595182671E1,-2.233804779E0,9.637259216E0,-2.788700867E-1,9.896687199E0
1.596175771E1,-2.362836456E0,9.665550385E0,-2.046244812E-1,9.952272682E0
1.597168771E1,-2.457739105E0,9.689650269E0,-1.378633118E-1,9.997440179E0
1.598161871E1,-2.493664398E0,9.645192719E0,-8.876541138E-2,9.962729747E0
1.599154871E1,-2.443967743E0,9.585017853E0,-6.152206421E-2,9.891882052E0
1.600147871E1,-2.345173187E0,9.529483337E0,-8.816665649E-2,9.814207218E0
1.601140971E1,-2.227817230E0,9.510023804E0,-1.460961914E-1,9.768575457E0
1.602133971E1,-2.165097656E0,9.524693298E0,-2.324665833E-1,9.770438629E0
1.603127071E1,-2.135159912E0,9.554331665E0,-2.987786865E-1,9.794561252E0
1.604120071E1,-2.149679718E0,9.574240265E0,-3.522175598E-1,9.818923401E0
1.605113071E1,-2.185904388E0,9.577383728E0,-3.772155762E-1,9.830907825E0
1.606106171E1,-2.209704895E0,9.611662445E0,-3.463796997E-1,9.868476558E0
1.607099171E1,-2.222727814E0,9.642797699E0,-2.897973633E-1,9.899901460E0
1.608092271E1,-2.238744507E0,9.677675171E0,-2.618055725E-1,9.936695418E0
1.609085271E1,-2.256707153E0,9.674082642E0,-2.432441711E-1,9.936788710E0
1.610078371E1,-2.235451355E0,9.599837036E0,-2.282752991E-1,9.859321655E0
1.611071371E1,-2.154918823E0,9.517508240E0,-2.389031982E-1,9.761337663E0
1.612064371E1,-2.038161621E0,9.469458160E0,-2.559677124E-1,9.689698660E0
1.613057471E1,-1.934427338E0,9.490414581E0,-2.776725769E-1,9.689534566E0
1.614050471E1,-1.876647491E0,9.548493805E0,-2.809657288E-1,9.735218615E0
1.615043571E1,-1.852547607E0,9.617200928E0,-2.661465454E-1,9.797618093E0
1.616036571E1,-1.854643250E0,9.706265717E0,-2.754272461E-1,9.885704624E0
1.617029571E1,-1.889371033E0,9.785001984E0,-2.838098145E-1,9.969781077E0
1.618022671E1,-1.950294342E0,9.820029144E0,-2.906954956E-1,1.001604334E1
1.619015671E1,-2.004781036E0,9.769284668E0,-2.951861572E-1,9.977234326E0
1.620008771E1,-2.032174072E0,9.677375793E0,-2.736309814E-1,9.892229659E0
1.621001771E1,-2.002984772E0,9.596992950E0,-2.848576355E-1,9.807923611E0
1.621994771E1,-1.959724731E0,9.541009369E0,-2.897973633E-1,9.744504262E0
1.622987871E1,-1.933678894E0,9.475296021E0,-2.965333557E-1,9.675137248E0
1.623980871E1,-1.918260956E0,9.460476837E0,-3.007246399E-1,9.657679969E0
1.624973971E1,-1.946701813E0,9.511969757E0,-2.920426941E-1,9.713521789E0
1.625966971E1,-2.017953644E0,9.586215363E0,-3.023712158E-1,9.800973943E0
1.626960071E1,-2.105222168E0,9.648785248E0,-3.103047180E-1,9.880653124E0
1.627953071E1,-2.174378357E0,9.638756104E0,-3.201841736E-1,9.886154883E0
1.628946071E1,-2.195484467E0,9.621990967E0,-3.041674805E-1,9.873974887E0
1.629939171E1,-2.190395050E0,9.602082367E0,-2.740800476E-1,9.852559877E0
1.630932171E1,-2.169438629E0,9.574240265E0,-2.550695801E-1,9.820264819E0
1.631925271E1,-2.168540497E0,9.546996918E0,-2.154020691E-1,9.792554114E0
1.632918271E1,-2.167492676E0,9.544003143E0,-2.062710571E-1,9.789206722E0
1.633911271E1,-2.188000031E0,9.533824310E0,-2.257305908E-1,9.784278431E0
1.634904371E1,-2.188000031E0,9.508826294E0,-2.540217590E-1,9.760617228E0
1.635897371E1,-2.136656799E0,9.490863647E0,-2.770738220E-1,9.732346323E0
1.636890471E1,-2.077230377E0,9.523196411E0,-2.912942505E-1,9.751461853E0
1.637883471E1,-2.031874695E0,9.587412872E0,-2.791694641E-1,9.804332509E0
1.638876571E1,-2.007625122E0,9.670639801E0,-2.526745605E-1,9.880064637E0
1.639869571E1,-2.015558624E0,9.730215912E0,-2.348616028E-1,9.939554227E0
1.640862571E1,-2.015259247E0,9.726174316E0,-2.167492676E-1,9.935125410E0
