"Time (s)","Acceleration x (m/s^2)","Acceleration y (m/s^2)","Acceleration z (m/s^2)","Absolute acceleration (m/s^2)"
2.755499998E-3,4.483177185E0,8.477171631E0,3.381168823E0,1.016826530E1
1.268649999E-2,4.596491547E0,8.640781403E0,3.628155212E0,1.043811995E1
2.261750000E-2,4.929698639E0,8.487649841E0,3.542682953E0,1.043516799E1
3.254816667E-2,5.130580902E0,8.316405945E0,3.182681580E0,1.027691249E1
4.247816667E-2,5.094206543E0,8.274343414E0,2.981350250E0,1.016386484E1
5.240916666E-2,4.954247589E0,8.288563843E0,3.056344299E0,1.012847966E1
6.234016667E-2,4.985233154E0,8.602760468E0,3.328328705E0,1.048512323E1
7.227116666E-2,5.008883972E0,8.810378723E0,3.448079681E0,1.070518311E1
8.220216667E-2,5.175337830E0,8.867709503E0,3.371439056E0,1.080680317E1
9.213216667E-2,5.419031067E0,8.950038300E0,3.334465942E0,1.098124521E1
1.020631667E-1,5.438041534E0,9.053323517E0,3.323089600E0,1.107148982E1
1.119941667E-1,5.383105774E0,9.087602234E0,3.203039246E0,1.103729145E1
1.219241667E-1,5.202431488E0,8.924291840E0,2.877915344E0,1.072337050E1
1.318551667E-1,4.882696381E0,8.906478882E0,2.444416809E0,1.044706962E1
1.417861667E-1,6.035299530E0,8.458161163E0,2.889890442E0,1.078502654E1
1.517171667E-1,5.178630981E0,8.781189423E0,3.054398346E0,1.064222043E1
1.616481667E-1,3.595822449E0,9.313183136E0,2.862796783E0,1.038561142E1
1.715781667E-1,3.784579926E0,8.702004089E0,2.563868408E0,9.829615537E0
1.815091667E-1,4.188290405E0,7.418722687E0,2.425256653E0,8.857826633E0
1.914401667E-1,1.182241516E0,8.601712646E0,2.165247345E0,8.948488784E0
2.013711667E-1,-8.586145020E-1,9.889933777E0,1.823058929E0,1.009314385E1
2.113011667E-1,-1.019829254E0,1.039483383E1,3.457659760E0,1.100218311E1
2.212321667E-1,2.262844391E0,9.379495239E0,4.510719910E0,1.065091497E1
2.311631667E-1,3.187621307E0,8.997339935E0,3.089126129E0,1.003273421E1
2.410941667E-1,3.156785431E0,8.932375031E0,2.663411407E0,9.841055750E0
2.510241667E-1,2.982996826E0,8.913514252E0,3.120560760E0,9.903883372E0
2.609551667E-1,2.564467163E0,8.896749115E0,2.128573608E0,9.500498000E0
2.708861667E-1,2.783611450E0,8.559350739E0,1.736389160E0,9.166571065E0
2.808171667E-1,3.265010376E0,8.337661743E0,2.938539276E0,9.424007066E0
2.907471667E-1,3.404370575E0,8.717871094E0,3.407364349E0,9.959977270E0
3.006781667E-1,3.496429138E0,9.041797485E0,3.727099457E0,1.038606705E1
3.106091667E-1,4.062102814E0,7.596103821E0,3.629951477E0,9.347621101E0
3.205401667E-1,3.441942444E0,7.541766815E0,2.445015564E0,8.643107982E0
3.304701667E-1,3.879931641E0,8.270002441E0,2.464325409E0,9.461485594E0
3.404011667E-1,3.861070862E0,8.343200226E0,2.766097870E0,9.600424763E0
3.503321667E-1,2.887794800E0,8.575816498E0,2.653232574E0,9.429932688E0
3.602631667E-1,2.164648590E0,8.809181213E0,2.576891327E0,9.430150904E0
3.701931667E-1,1.368304596E0,9.466015320E0,2.449206848E0,9.873009556E0
3.801241667E-1,1.060095520E0,9.491163025E0,2.581082611E0,9.892823941E0
3.900551667E-1,1.518741760E0,8.402327271E0,2.902164917E0,9.018217191E0
3.999861667E-1,1.501377869E0,7.164700928E0,2.600542145E0,7.768519443E0
4.099161667E-1,1.073417816E0,6.211483154E0,1.844015350E0,6.567734876E0
4.198471667E-1,9.377998352E-1,4.954696655E0,1.470841370E0,5.252795619E0
4.297781667E-1,1.722767487E0,3.678300934E0,1.357826385E0,4.282699857E0
4.397091667E-1,3.057392120E0,2.803819427E0,9.797126770E-1,4.262497729E0
4.496391667E-1,2.490221558E0,3.230432281E0,1.976789246E0,4.532614240E0
4.595701667E-1,3.193159790E0,3.187321930E0,2.746488647E0,5.281902159E0
4.695011667E-1,4.866380310E0,3.334915009E0,1.414857788E0,6.066723827E0
4.794321667E-1,5.756878510E0,4.762496338E0,1.586550751E0,7.638073371E0
4.893621667E-1,4.658612366E0,7.271428986E0,3.963308258E0,9.501797778E0
4.992931667E-1,3.809577942E0,8.438551941E0,4.867577820E0,1.046017958E1
5.092241667E-1,4.001329193E0,8.235873413E0,3.878584442E0,9.944026522E0
5.191551667E-1,3.476221161E0,7.556885376E0,1.854194183E0,8.522245374E0
5.290851667E-1,2.218686218E0,6.175707550E0,2.034718781E0,6.870372100E0
5.390161667E-1,6.878196716E-1,5.125641174E0,3.899241486E0,6.476833911E0
5.489471667E-1,-8.934919739E-1,3.859723663E0,3.821852417E0,5.504757085E0
5.588781667E-1,-3.553909607E0,2.469265137E0,1.260079651E0,4.507254656E0
5.688081667E-1,-4.966971130E0,2.060165863E0,8.738827515E-1,5.447821276E0
5.787391667E-1,-7.500003662E0,2.086211700E0,1.930984497E0,8.020663022E0
5.886701667E-1,-7.318431244E0,5.284311218E0,2.365530853E0,9.331619213E0
5.986011667E-1,-7.031328278E0,9.340875549E0,-4.104464722E0,1.239105177E1
6.085311667E-1,-7.593259735E0,1.139789795E1,-3.612288208E0,1.416397886E1
6.184621667E-1,-8.053552551E0,1.053673874E1,2.346221008E0,1.346801117E1
6.283931667E-1,-6.845863953E0,9.741891632E0,1.487456818E0,1.199928471E1
6.383241667E-1,-6.954987030E0,9.367520142E0,1.107397156E0,1.171958219E1
6.482541667E-1,-6.991511078E0,9.484127655E0,2.185904388E0,1.198365898E1
6.581851667E-1,-7.590265961E0,1.014425491E1,1.852697296E0,1.280431694E1
6.681161667E-1,-7.083569641E0,1.597807343E1,1.994452515E0,1.759129416E1
6.780471667E-1,-2.455344086E0,3.381408325E1,1.380878448E0,3.393122111E1
6.879781667E-1,-3.810027008E0,2.553494980E1,2.298320618E0,2.591972694E1
6.979081667E-1,-7.022346954E0,8.393944702E0,3.711831207E0,1.155635562E1
7.078391667E-1,-7.603139191E0,9.171727295E0,3.943998413E0,1.254924024E1
7.177701667E-1,-7.681127014E0,8.234975281E0,3.581751709E0,1.181708405E1
7.277011667E-1,-7.861202545E0,8.353379059E0,3.157533875E0,1.189737229E1
7.376311667E-1,-7.426356812E0,8.392747192E0,3.144061890E0,1.163933444E1
7.475621667E-1,-7.112758942E0,8.044870605E0,2.851570129E0,1.111047861E1
7.574931667E-1,-6.578220520E0,7.851472778E0,2.542762299E0,1.055387370E1
7.674241667E-1,-5.971831512E0,8.570128326E0,2.251917114E0,1.068555108E1
7.773541667E-1,-4.519401855E0,1.108834167E1,1.681902466E0,1.209153051E1
7.872851667E-1,-7.851173401E-1,1.409214523E1,6.364764404E-1,1.412834275E1
7.972161667E-1,4.290078735E-1,1.747406250E1,-6.665638733E-1,1.749203291E1
8.071471667E-1,-2.573897552E0,2.204331070E1,-1.475481720E0,2.224206693E1
8.170771667E-1,-3.531007233E0,2.221186020E1,-2.570155334E0,2.263714744E1
8.270081667E-1,-2.048639832E0,1.673250458E1,-3.800596619E0,1.728057202E1
8.369391667E-1,1.075663147E0,8.956325226E0,-4.317471771E0,1.000066874E1
8.468701667E-1,2.772833862E0,3.748954010E0,-4.600383453E0,6.550327604E0
8.568001667E-1,2.515668640E0,2.352208557E0,-5.079836426E0,6.137280498E0
8.667311667E-1,1.228495331E0,3.335064697E0,-4.544699249E0,5.769414925E0
8.766621667E-1,1.623224487E0,5.110672302E0,-2.749781799E0,6.026203536E0
8.865931667E-1,3.344046021E0,7.329059143E0,-1.575473785E0,8.208524189E0
8.965231667E-1,3.869303741E0,9.727671204E0,-1.750908966E0,1.061436671E1
9.064541667E-1,2.355202332E0,1.175221115E1,-2.586920471E0,1.226187598E1
9.163851667E-1,3.667373657E-1,1.260423935E1,-2.837200012E0,1.292482301E1
9.263161667E-1,-1.175655212E0,1.262280075E1,-2.596201172E0,1.294053803E1
9.362461667E-1,-1.007255402E0,1.135808075E1,-2.403701477E0,1.165325459E1
9.461771667E-1,-5.366340637E-1,9.797276459E0,-2.464475098E0,1.011673068E1
9.561081667E-1,-8.816665649E-2,8.770561523E0,-2.664758606E0,9.166867580E0
9.660391667E-1,6.737489319E-1,8.279283142E0,-2.608625336E0,8.706629262E0
9.759691667E-1,1.765728149E0,7.744744720E0,-2.956801300E0,8.475938922E0
9.859001667E-1,2.378404083E0,7.563920746E0,-2.840044098E0,8.422324709E0
9.958311667E-1,2.490970001E0,7.398065643E0,-2.815794525E0,8.298494178E0
1.005762167E0,2.454146576E0,7.282356262E0,-2.721939697E0,8.152576517E0
1.015692167E0,2.030078430E0,7.314689026E0,-2.129920807E0,7.884317131E0
1.025622917E0,2.010618896E0,7.543263702E0,-2.105072479E0,8.085465093E0
1.035553917E0,2.255060577E0,7.746091919E0,-2.335293732E0,8.398859151E0
1.045484917E0,2.320923615E0,8.228388977E0,-2.568508759E0,8.926942860E0
1.055414917E0,2.278711395E0,8.973090363E0,-2.666405182E0,9.634240648E0
1.065345917E0,1.938768311E0,9.838889923E0,-2.401007080E0,1.031151844E1
1.075276917E0,1.365310822E0,1.043599823E1,-1.843416595E0,1.068514471E1
1.085207917E0,9.108558655E-1,1.048823959E1,-1.147962799E0,1.059012024E1
1.095137917E0,5.553451538E-1,1.017419266E1,-5.948629761E-1,1.020668734E1
1.105068917E0,-9.131011963E-3,1.011521530E1,-7.035369873E-1,1.013965622E1
1.114999917E0,-9.026229858E-2,1.011356873E1,-7.325765991E-1,1.014046785E1
1.124930917E0,-6.077362061E-2,9.946965179E0,-8.599617004E-1,9.984254796E0
1.134860917E0,-6.825805664E-2,9.610015869E0,-1.028511200E0,9.665138357E0
1.144791917E0,4.073030090E-1,9.274563446E0,-1.064286804E0,9.344309994E0
1.154722917E0,7.107220459E-1,9.115144958E0,-1.304088135E0,9.235347276E0
1.164653917E0,1.133442993E0,9.336684265E0,-1.674418030E0,9.553116864E0
1.174583917E0,1.326541443E0,9.531578979E0,-1.945204926E0,9.818071717E0
1.184514917E0,1.468745728E0,9.371561737E0,-1.981429596E0,9.690688657E0
1.194445917E0,1.626667328E0,9.180858307E0,-2.097887421E0,9.556952311E0
1.204376917E0,1.152154083E0,8.733438721E0,-2.135159912E0,9.064177777E0
1.214306917E0,1.006806335E0,8.790021057E0,-2.030527496E0,9.077509080E0
1.224237917E0,7.012916565E-1,9.051527252E0,-1.800306244E0,9.255433980E0
1.234168917E0,3.179388428E-1,9.132957916E0,-1.642833710E0,9.284982930E0
1.244099917E0,-7.843688965E-2,9.051676941E0,-1.534309387E0,9.181128094E0
1.254029917E0,-3.839515686E-1,9.265282745E0,-1.231788483E0,9.354687917E0
1.263960917E0,-6.120771790E-1,9.573791199E0,-9.752220154E-1,9.642778353E0
1.273891917E0,-8.852590942E-1,9.858798523E0,-1.086291046E0,9.957892358E0
1.283822917E0,-1.002315674E0,1.019350250E1,-1.562301178E0,1.036112518E1
1.293752917E0,-1.275796967E0,1.098610428E1,-2.017055511E0,1.124235999E1
1.303683917E0,-1.512305145E0,1.124596390E1,-1.963766327E0,1.151586510E1
1.313614917E0,-1.328936462E0,1.096544724E1,-1.839824066E0,1.119785952E1
1.323545917E0,-6.670129395E-1,1.062894699E1,-1.986668701E0,1.083357157E1
1.333475917E0,3.906875610E-1,1.063209045E1,-1.607806549E0,1.076006627E1
1.343406917E0,1.983225861E0,1.059332108E1,-3.775149536E-1,1.078397671E1
1.353337917E0,3.269501038E0,1.046997757E1,5.248086548E-1,1.098114254E1
1.363268917E0,4.128115540E0,1.043839325E1,6.647676086E-1,1.124470131E1
1.373198917E0,4.407135315E0,1.066232758E1,2.076182556E-1,1.153911506E1
1.383129917E0,5.023852844E0,1.162752045E1,-8.780740356E-1,1.269682414E1
1.393060917E0,5.366340637E0,1.373364075E1,-2.358196106E0,1.493223322E1
1.402991917E0,5.288801880E0,1.574590622E1,-3.548670502E0,1.698523036E1
1.412921917E0,4.914280701E0,1.660407166E1,-3.943399658E0,1.775938488E1
1.422852917E0,4.121379547E0,1.618344635E1,-3.831282806E0,1.713383883E1
1.432783917E0,3.462300110E0,1.516930527E1,-3.812871094E0,1.601977935E1
1.442714917E0,2.810705109E0,1.410202469E1,-3.860921173E0,1.488871639E1
1.452644917E0,2.260299683E0,1.310988785E1,-3.558849335E0,1.377111189E1
1.462575917E0,1.668580170E0,1.182271454E1,-3.260070648E0,1.237694629E1
1.472506917E0,2.311193848E-1,1.034483780E1,-3.591331787E0,1.095293336E1
1.482437917E0,-9.966275024E-1,9.913883972E0,-3.265908508E0,1.048544325E1
1.492367917E0,-2.505938873E0,9.522447968E0,-2.740351410E0,1.022087427E1
1.502298917E0,-3.156036987E0,8.919501801E0,-2.633773041E0,9.821142615E0
1.512229917E0,-2.568957825E0,9.007069702E0,-2.673739929E0,9.740417554E0
1.522160917E0,-2.008373566E0,9.529782715E0,-2.620001678E0,1.008537217E1
1.532090917E0,-1.363963623E0,1.026146118E1,-2.618205414E0,1.067768617E1
1.542021917E0,-6.093827820E-1,1.095002930E1,-3.014281769E0,1.137367063E1
1.551952917E0,-3.168910217E-1,1.140493332E1,-3.443289642E0,1.191759907E1
1.561883917E0,2.959346008E-1,1.073762100E1,-3.642525330E0,1.134248971E1
1.571813917E0,1.114432526E0,9.799521790E0,-3.860322418E0,1.059125471E1
1.581744917E0,1.737886047E0,9.202263794E0,-4.520898743E0,1.039905920E1
1.591675917E0,2.336790619E0,8.458909607E0,-4.814588013E0,1.000969529E1
1.601606917E0,2.741698608E0,8.032147064E0,-4.364773407E0,9.543769937E0
1.611536917E0,2.634371796E0,8.583151245E0,-3.942501526E0,9.805800239E0
1.621467917E0,2.579286346E0,9.070388031E0,-3.186872864E0,9.953934686E0
1.631398917E0,2.936144257E0,9.227561188E0,-2.254761200E0,9.942473366E0
1.641329917E0,2.912493439E0,9.668544159E0,-1.533411255E0,1.021345751E1
1.651259917E0,3.032992859E0,9.967921600E0,-1.488804016E0,1.052497240E1
1.661190917E0,3.175795898E0,1.000773880E1,-1.547931061E0,1.061303943E1
1.671121917E0,3.722908173E0,1.026490402E1,-2.149979095E0,1.112882339E1
1.681052917E0,4.326004028E0,9.864486694E0,-3.209775238E0,1.123944241E1
1.690982917E0,4.163891144E0,9.296867065E0,-3.198398895E0,1.067705400E1
1.700913917E0,3.618575134E0,9.009913788E0,-2.527194672E0,1.003291311E1
1.710844917E0,2.926564178E0,8.615633698E0,-2.271676025E0,9.378402522E0
1.720775917E0,2.212399292E0,8.225395203E0,-2.843187561E0,8.979730084E0
1.730705917E0,1.432670746E0,8.188422089E0,-3.414250031E0,8.986651492E0
1.740636917E0,5.054988098E-1,8.112230530E0,-3.395988007E0,8.808890268E0
1.750567917E0,-2.811154175E-1,7.525001678E0,-2.871628418E0,8.059213728E0
1.760498917E0,-1.334924011E0,7.122189331E0,-2.426903229E0,7.641823229E0
1.770428917E0,-2.367027740E0,6.882537689E0,-1.525777130E0,7.436406472E0
1.780359917E0,-3.142714691E0,6.603667603E0,-4.969665527E-1,7.330215358E0
1.790290917E0,-3.513643341E0,6.829847260E0,3.076103210E-1,7.686815155E0
1.800221917E0,-3.745211792E0,6.952442322E0,9.472302246E-1,7.953635062E0
1.810151917E0,-3.420237579E0,7.624394989E0,9.909393311E-1,8.414950077E0
1.820082917E0,-2.905158691E0,8.510701904E0,4.541555786E-1,9.004346240E0
1.830013917E0,-2.438279572E0,9.382339325E0,-5.284011841E-2,9.694136916E0
1.839944917E0,-2.064955902E0,9.716444550E0,-4.821473694E-1,9.945139700E0
1.849874917E0,-2.401605835E0,9.569150848E0,-3.439846802E-1,9.871913898E0
1.859805917E0,-2.919229431E0,9.731114044E0,8.482859802E-1,1.019490412E1
1.869736917E0,-3.712130585E0,9.088949432E0,1.903591461E0,1.000062877E1
1.879667917E0,-3.996988220E0,8.204588470E0,2.899620209E0,9.575958655E0
1.889597917E0,-3.925736389E0,7.930957489E0,4.252506866E0,9.818111200E0
1.899528917E0,-3.485651550E0,8.283025360E0,5.624403992E0,1.060151858E1
1.909459917E0,-2.356250153E0,9.150621185E0,6.804699554E0,1.164429985E1
1.919390917E0,-7.458988953E-1,1.025397675E1,7.303162994E0,1.261097118E1
1.929320917E0,8.062234497E-1,1.117710709E1,6.574328613E0,1.299228678E1
1.939251917E0,2.185006256E0,1.159174484E1,5.064717865E0,1.283721807E1
1.949182917E0,3.169209595E0,1.109193420E1,3.840114441E0,1.215818131E1
1.959113917E0,3.362158356E0,9.624086609E0,3.263812866E0,1.070418733E1
1.969043917E0,2.951861572E0,8.042176208E0,2.864892426E0,9.033144166E0
1.978974917E0,2.029779053E0,6.859335938E0,2.777025146E0,7.673484291E0
1.988905917E0,9.831555176E-1,6.184988251E0,2.878514099E0,6.892497215E0
1.998835917E0,4.460723877E-2,6.833439789E0,2.884202271E0,7.417311635E0
2.008766917E0,-5.207670593E-1,9.660311279E0,2.614313507E0,1.002134958E1
2.018697917E0,-2.993774414E-1,1.422222473E1,1.017284546E0,1.426170295E1
2.028629500E0,2.269281006E-1,1.942600342E1,-1.102457428E0,1.945858467E1
2.038560500E0,-6.206094360E-1,2.365081787E1,-4.208049316E0,2.403027301E1
2.048490500E0,-4.014651489E0,2.518452850E1,-6.778504028E0,2.638799006E1
2.058421500E0,-8.806935883E0,2.347852615E1,-6.114634552E0,2.581069673E1
2.068352500E0,-9.314380646E0,1.577285019E1,-2.367476807E0,1.847012280E1
2.078282500E0,-5.327122192E0,6.596632233E0,3.472778320E-1,8.486129245E0
2.088213500E0,-2.950364685E0,1.122216339E0,-1.057700500E0,3.329076694E0
2.098144500E0,-1.820514221E0,-1.600471802E0,-1.859283600E0,3.054949676E0
2.108075500E0,-1.482816467E0,-2.240840149E0,-1.812880096E0,3.241395300E0
2.118005500E0,-3.749702454E-1,-1.032403107E0,-2.161056061E0,2.424174531E0
2.127936500E0,1.873054962E0,2.344873810E0,-2.410437469E0,3.849282643E0
2.137867500E0,3.894750824E0,6.064788208E0,-2.746189270E0,7.713124885E0
2.147798500E0,5.309458923E0,9.017847290E0,-3.286565552E0,1.096874819E1
2.157728500E0,5.990243225E0,1.155492142E1,-4.250411224E0,1.369179384E1
2.167659500E0,5.762416992E0,1.334445007E1,-5.755381622E0,1.563343260E1
2.177590500E0,5.027445374E0,1.387764130E1,-7.741451569E0,1.666715955E1
2.187521500E0,3.514691162E0,1.313997528E1,-8.169710999E0,1.586682647E1
2.197451500E0,9.401948547E-1,1.250828888E1,-6.199807434E0,1.399210025E1
2.207382500E0,-2.432741089E0,1.133802246E1,-2.338287506E0,1.182947890E1
2.217313500E0,-4.273762665E0,9.709259491E0,2.634222107E0,1.093041140E1
2.227244500E0,-4.745132446E0,9.230105896E0,5.017416229E0,1.152760176E1
2.237174500E0,-3.475023651E0,8.996591492E0,3.744163971E0,1.034568566E1
2.247105500E0,-2.655028839E0,8.928782501E0,1.332828369E0,9.410035417E0
2.257036500E0,-2.041604462E0,8.754395142E0,-7.969427490E-1,9.024560976E0
2.266967500E0,-9.909393311E-1,8.771160278E0,-2.308499451E0,9.123835986E0
2.276897500E0,7.858657837E-2,8.848848724E0,-3.218307495E0,9.416252053E0
2.286828500E0,9.505233765E-1,8.691226501E0,-3.578757935E0,9.447138252E0
2.296759500E0,1.424886932E0,8.583300934E0,-3.999832306E0,9.576116967E0
2.306690500E0,1.454974365E0,8.490493927E0,-4.416116638E0,9.680264650E0
2.316620500E0,1.404379578E0,8.479416962E0,-4.343367920E0,9.630038364E0
2.326551500E0,1.500180359E0,8.586893463E0,-3.746259613E0,9.487873394E0
2.336482500E0,1.550475769E0,8.743168488E0,-2.719095612E0,9.286573709E0
2.346413500E0,1.299298096E0,8.847651215E0,-1.807940369E0,9.123472800E0
2.356343500E0,5.700146484E-1,9.003028107E0,-1.229393463E0,9.104440679E0
2.366274500E0,-1.290316772E-1,9.249266052E0,-1.188678131E0,9.326227929E0
2.376205500E0,-1.049617310E0,9.359436951E0,-1.447938995E0,9.528760878E0
2.386136500E0,-1.531315613E0,9.284293213E0,-1.894011383E0,9.598453370E0
2.396066500E0,-1.243164825E0,9.553732910E0,-2.361638947E0,9.919506531E0
2.405997500E0,-6.741979980E-1,9.844877472E0,-2.752027130E0,1.024450139E1
2.415928500E0,2.076182556E-1,1.031969009E1,-2.322719879E0,1.057989303E1
2.425859500E0,9.235794067E-1,1.062176193E1,-1.618883514E0,1.078404420E1
2.435789500E0,1.393003235E0,1.065125061E1,-1.634002075E0,1.086552163E1
2.445720500E0,1.607507172E0,1.049392776E1,-2.123484192E0,1.082662387E1
2.455651500E0,1.269210663E0,1.026086243E1,-2.268083496E0,1.058491361E1
2.465582500E0,8.523275757E-1,1.009530670E1,-1.936972046E0,1.031472445E1
2.475512500E0,6.026467896E-1,1.057835220E1,-1.691033478E0,1.072959984E1
2.485443500E0,1.164578247E-1,1.055889267E1,-1.647474060E0,1.068727971E1
2.495374500E0,4.168830872E-1,1.082683548E1,-1.421144714E0,1.092766262E1
2.505305500E0,9.138496399E-1,1.098999619E1,-1.261426849E0,1.109983491E1
2.515235500E0,1.395098877E0,1.068343369E1,-1.622176666E0,1.089557311E1
2.525166500E0,1.859882355E0,1.079150894E1,-1.884131927E0,1.111151568E1
2.535097500E0,2.212249603E0,1.134490814E1,-1.717229004E0,1.168545525E1
2.545028500E0,2.087109833E0,1.163844772E1,-2.089804230E0,1.200736335E1
2.554958500E0,1.478625183E0,1.138532410E1,-2.926264801E0,1.184799405E1
2.564889500E0,5.391787720E-1,1.132050888E1,-3.104244690E0,1.175078594E1
2.574820500E0,-5.248086548E-1,1.149070496E1,-3.000809784E0,1.188766520E1
2.584750500E0,-9.586065674E-1,1.155626862E1,-2.653981018E0,1.189579279E1
2.594681500E0,-8.765771484E-1,1.200518509E1,-2.265838165E0,1.224854600E1
2.604612500E0,-7.952961731E-1,1.279703842E1,-2.106868744E0,1.299367478E1
2.614543500E0,-8.210426331E-1,1.330133972E1,-2.083367615E0,1.348851993E1
2.624473500E0,-4.986131287E-1,1.288864792E1,-2.314487000E0,1.310430121E1
2.634404500E0,4.602928162E-1,1.212688202E1,-2.837798767E0,1.246299478E1
2.644335500E0,1.118923187E0,1.176238998E1,-3.067421265E0,1.220716513E1
2.654266500E0,1.215173035E0,1.154534134E1,-2.828817444E0,1.194879744E1
2.664196500E0,1.058448944E0,1.134999756E1,-2.237546997E0,1.161677129E1
2.674127500E0,5.568420410E-1,1.099224152E1,-1.701661377E0,1.113710456E1
2.684058500E0,-2.833607483E-1,1.062715073E1,-1.537602539E0,1.074154772E1
2.693989500E0,-1.078806610E0,1.019529877E1,-1.158441010E0,1.031745735E1
2.703919500E0,-1.582060089E0,9.648785248E0,-9.177415466E-1,9.820601836E0
2.713850500E0,-2.173480225E0,9.623637543E0,-1.427731018E0,9.968792891E0
2.723781500E0,-2.468666382E0,9.591005402E0,-1.915716248E0,1.008720313E1
2.733712500E0,-2.499502258E0,9.702822876E0,-2.210752716E0,1.026059018E1
2.743642500E0,-2.416425018E0,1.018990997E1,-2.164648590E0,1.069388043E1
2.753573500E0,-2.364632721E0,1.038959473E1,-1.970652008E0,1.083598799E1
2.763504500E0,-2.397115173E0,1.036205200E1,-1.718127136E0,1.077359010E1
2.773435500E0,-2.390977936E0,1.034663406E1,-2.098486176E0,1.082465963E1
2.783365500E0,-2.268981628E0,1.045725403E1,-2.900069275E0,1.108660639E1
2.793296500E0,-1.906734924E0,1.091290649E1,-3.505260773E0,1.161955332E1
2.803227500E0,-1.544937286E0,1.155611893E1,-3.620072021E0,1.220801529E1
2.813158500E0,-1.230141907E0,1.199785034E1,-3.046464844E0,1.243955827E1
2.823088500E0,-1.243763580E0,1.254780670E1,-2.343975677E0,1.282531180E1
2.833019500E0,-7.195536804E-1,1.236653366E1,-2.431842957E0,1.262389688E1
2.842950500E0,-2.680924988E-1,1.194486053E1,-2.678679657E0,1.224446371E1
2.852881500E0,2.264790344E-1,1.129551086E1,-2.692151642E0,1.161410948E1
2.862811500E0,8.451425171E-1,1.052730835E1,-2.589465179E0,1.087399728E1
2.872742500E0,1.143172760E0,9.569300537E0,-2.063459015E0,9.855770890E0
2.882673500E0,9.738748169E-1,8.514144745E0,-1.326092377E0,8.671655775E0
2.892604500E0,-2.597099304E-1,7.937244415E0,-4.101470947E-1,7.952076383E0
2.902534500E0,-1.008003845E0,7.632029114E0,1.121168518E-1,7.699123998E0
2.912465500E0,-8.023315430E-2,6.938072205E0,-3.059637451E-1,6.945278762E0
2.922396500E0,1.136586456E0,6.380781097E0,1.989363098E-1,6.484271111E0
2.932327500E0,6.929090881E-1,6.063890076E0,3.616479492E-1,6.114055536E0
2.942257500E0,-3.323089600E-2,6.157295837E0,6.559359741E-1,6.192224828E0
2.952188500E0,-3.978726196E-1,5.559738464E0,6.388714600E-1,5.610450174E0
2.962119500E0,-9.687854004E-1,4.810546417E0,7.550299072E-1,4.964873830E0
2.972050500E0,-1.451531525E0,4.400099945E0,9.466314697E-1,4.729052171E0
2.981980500E0,-1.630858612E0,4.362528076E0,1.110241241E0,4.787900024E0
2.991911500E0,-1.557361450E0,4.101920013E0,1.160087585E0,4.538383599E0
3.001842500E0,-1.329086151E0,4.197720795E0,1.102457428E0,4.539024372E0
3.011772500E0,-1.529369659E0,4.001478882E0,1.017733612E0,4.403020157E0
3.021703500E0,-1.423839111E0,4.202361145E0,7.235952759E-1,4.495636455E0
3.031634042E0,-1.616039429E0,4.826114044E0,9.740245056E-1,5.181861050E0
3.041565042E0,-1.688339081E0,5.581293640E0,1.545386353E0,6.032374866E0
3.051495042E0,-1.794767761E0,6.498436432E0,2.249821472E0,7.107219149E0
3.061426042E0,-2.122586060E0,7.832162933E0,3.057392120E0,8.671550863E0
3.071357042E0,-2.268083496E0,9.461674347E0,3.572171631E0,1.036474285E1
3.081288042E0,-2.574645996E0,1.161389877E1,4.150868225E0,1.259925211E1
3.091218042E0,-2.949316864E0,1.453806793E1,4.823120270E0,1.559860181E1
3.101149042E0,-3.360062714E0,1.643237869E1,6.016887817E0,1.781897949E1
3.111080042E0,-3.255280609E0,1.638522675E1,7.439080353E0,1.828694682E1
3.121011042E0,-2.542762299E0,1.494432312E1,7.747588806E0,1.702420530E1
3.130941042E0,-1.449136505E0,1.315329758E1,7.252268829E0,1.508988525E1
3.140872042E0,-1.374142456E-1,1.113339798E1,6.248007202E0,1.276749886E1
3.150803042E0,9.988728333E-1,9.478888550E0,5.378615112E0,1.094424852E1
3.160734042E0,1.816023560E0,8.180787964E0,4.956492920E0,9.736018454E0
3.170664042E0,2.145787811E0,7.207960968E0,5.228028259E0,9.159224101E0
3.180595042E0,1.763333130E0,6.345753937E0,5.671705627E0,8.691730638E0
3.190526042E0,9.389973450E-1,5.544021149E0,5.970484314E0,8.201498001E0
3.200457042E0,2.885998535E-1,5.410049744E0,6.196364594E0,8.230848211E0
3.210387042E0,2.390528870E-1,6.604416046E0,6.062991943E0,8.968574519E0
3.220318042E0,4.339476013E-1,9.064101105E0,5.784720612E0,1.076146978E1
3.230249042E0,6.988966370E-1,1.271650589E1,4.979095917E0,1.367440583E1
3.240180042E0,1.013242950E0,1.694685883E1,4.148024139E0,1.747652110E1
3.250110042E0,1.351988525E0,2.058519287E1,2.080972595E0,2.073423462E1
3.260041042E0,1.637594604E-1,2.103845032E1,-2.413131866E0,2.117702563E1
3.269972042E0,-3.046464844E0,1.857846588E1,-5.092410278E0,1.950315321E1
3.279903042E0,-5.099146271E0,1.404828644E1,-3.507805481E0,1.535123265E1
3.289833042E0,-7.185208282E0,7.305408325E0,-2.065105591E0,1.045279245E1
3.299764042E0,-9.022487640E0,1.778751068E0,-1.106798401E0,9.262518085E0
3.309695042E0,-9.090296631E0,-8.966354370E-2,1.293310547E-1,9.091658755E0
3.319626042E0,-6.344556427E0,4.140390015E-1,5.532495117E-1,6.382077215E0
3.329556042E0,-1.876048737E0,2.062560883E0,4.337979126E-1,2.821683342E0
3.339487042E0,3.030298462E0,5.317991180E0,-6.435118103E-1,6.154498063E0
3.349418042E0,7.216942291E0,9.299262085E0,-2.139800262E0,1.196408277E1
3.359348042E0,9.252110138E0,1.187884781E1,-3.738775177E0,1.551409060E1
3.369279042E0,8.878337402E0,1.306962158E1,-4.731061707E0,1.649311457E1
3.379210042E0,6.038293304E0,1.380354538E1,-4.509821777E0,1.572696231E1
3.389141042E0,2.453547821E0,1.348800156E1,-3.437451782E0,1.413372413E1
3.399071042E0,-8.789721680E-1,1.208332260E1,-2.460583191E0,1.236259466E1
3.409002042E0,-2.315834198E0,9.939181366E0,-9.174421692E-1,1.024656598E1
3.418933042E0,-1.934277649E0,8.115823059E0,1.277443542E0,8.440371790E0
3.428864042E0,-1.165626068E0,6.951544189E0,1.910926208E0,7.303032913E0
3.438794042E0,-7.550299072E-1,6.294111328E0,7.828720093E-1,6.387393534E0
3.448725042E0,-2.285746765E-1,6.396797791E0,-4.592449951E-1,6.417333895E0
3.458656042E0,1.040336609E-1,7.367529144E0,-1.382525024E0,7.496844946E0
3.468587042E0,-2.933898926E-2,8.564290466E0,-1.903292084E0,8.773280614E0
3.478517042E0,-1.109193420E-1,9.317224731E0,-2.520308990E0,9.652716571E0
3.488448042E0,-6.174659729E-1,9.787846069E0,-2.048639832E0,1.001898798E1
3.498379042E0,-6.867718506E-1,9.615404663E0,-1.573378143E0,9.767455206E0
3.508310042E0,-5.803431702E-1,9.341174927E0,-1.290316772E0,9.447712135E0
3.518240042E0,2.649490356E-2,8.757239227E0,-8.785231018E-1,8.801235351E0
3.528171042E0,7.467970276E-1,8.144263916E0,-1.138981476E0,8.257361524E0
3.538102042E0,6.973997498E-1,8.604107666E0,-1.196911011E0,8.714908554E0
3.548033042E0,4.468208313E-1,9.244775391E0,-1.534010010E0,9.381828584E0
3.557963042E0,9.499246216E-1,9.500144348E0,-1.531764679E0,9.669612322E0
3.567894042E0,1.717079315E0,9.603728943E0,-1.434467010E0,9.860916113E0
3.577825042E0,2.147434387E0,9.578730927E0,-1.641187134E0,9.952741121E0
3.587756042E0,2.256557465E0,9.693242798E0,-1.815724182E0,1.011671201E1
3.597686042E0,2.356848907E0,9.449399872E0,-1.652413788E0,9.878075017E0
3.607617042E0,2.102378082E0,9.229956207E0,-1.471589813E0,9.580065854E0
3.617548042E0,1.577868805E0,9.166338501E0,-1.127605133E0,9.369254229E0
3.627479042E0,9.268725586E-1,9.427844696E0,-5.960604858E-1,9.492030155E0
3.637409042E0,5.474116516E-1,9.606123962E0,-1.818717957E-1,9.623427375E0
3.647340042E0,3.611988831E-1,9.735904083E0,-1.818717957E-1,9.744299375E0
3.657271042E0,2.362088013E-1,1.010039612E1,-4.921765137E-1,1.011513886E1
3.667201042E0,6.706054688E-2,9.858050079E0,-8.644523621E-1,9.896106627E0
3.677132042E0,-8.681945801E-3,9.625733185E0,-1.067130890E0,9.684708723E0
3.687063042E0,-6.237528992E-1,9.620793457E0,-1.164727936E0,9.711092914E0
3.696994042E0,-1.098266144E0,9.950857086E0,-9.168434143E-1,1.005317597E1
3.706924042E0,-9.964778137E-1,9.943971405E0,-4.775070190E-1,1.000517607E1
3.716855042E0,-4.610412598E-2,9.567204895E0,-3.866459656E-1,9.575125597E0
3.726786042E0,1.423390045E0,9.094038849E0,-8.445437622E-1,9.243421227E0
3.736717042E0,2.686313782E0,8.664132843E0,-1.527723083E0,9.198772607E0
3.746647042E0,3.700454865E0,9.637857971E0,-2.134112091E0,1.054211112E1
3.756578042E0,3.884272614E0,1.101723953E1,-2.439327393E0,1.193387861E1
3.766509042E0,3.499871979E0,1.238000565E1,-1.998344421E0,1.301948632E1
3.776440042E0,2.720592499E0,1.329235840E1,-8.129594421E-1,1.359225215E1
3.786370042E0,1.827100525E0,1.326765976E1,4.900808716E-1,1.340183835E1
3.796301042E0,1.395098877E0,1.332978058E1,4.875361633E-1,1.341145192E1
3.806232042E0,2.040107574E0,1.450753143E1,-7.813751221E-1,1.467109588E1
3.816163042E0,2.942431183E0,1.637145538E1,-2.028880920E0,1.675705256E1
3.826093042E0,3.313808899E0,1.719953339E1,-2.689008179E0,1.772106213E1
3.836024042E0,2.720592499E0,1.619063141E1,-2.057920532E0,1.654609337E1
3.845955042E0,1.210382996E0,1.470437210E1,-1.253193970E0,1.480723070E1
3.855885042E0,-2.580633545E-1,1.377645172E1,-1.096469879E0,1.382242616E1
3.865816042E0,-1.213676147E0,1.291678940E1,-1.169517975E0,1.302628997E1
3.875747042E0,-1.724264374E0,1.180190781E1,-1.368603973E0,1.200546510E1
3.885678042E0,-2.541564789E0,1.126377686E1,-1.923050995E0,1.170599615E1
3.895608042E0,-4.196373596E0,1.029873367E1,-1.282682648E0,1.119458536E1
3.905539042E0,-4.239633636E0,8.773106232E0,-4.769082642E-1,9.755476811E0
3.915470042E0,-3.965254211E0,8.554710388E0,-9.740245056E-1,9.479189550E0
3.925401042E0,-3.685186615E0,8.776100006E0,-1.292711792E0,9.605812588E0
3.935331042E0,-3.214565277E0,9.525441742E0,-1.321302338E0,1.013968985E1
3.945262042E0,-2.265838165E0,1.077983322E1,-1.372645569E0,1.110058479E1
3.955193042E0,-1.700014801E0,1.162916702E1,-1.356030121E0,1.183073935E1
3.965124042E0,-1.604363708E0,1.220337296E1,-1.348096619E0,1.238198929E1
3.975054042E0,-1.780098267E0,1.294313461E1,-1.370250549E0,1.313663085E1
3.984985042E0,-1.872605896E0,1.331106949E1,-2.019001465E0,1.359292429E1
3.994916042E0,-1.562001801E0,1.260902939E1,-2.983296204E0,1.305095889E1
4.004847042E0,-1.293460236E0,1.160222305E1,-4.252057800E0,1.242435571E1
4.014777042E0,-1.449585571E0,1.139430542E1,-4.114344177E0,1.220079187E1
4.024708042E0,-1.398541718E0,1.140119110E1,-3.214415588E0,1.192793130E1
4.034638917E0,-1.135089569E0,1.144654678E1,-2.390977936E0,1.174855894E1
4.044569917E0,-6.741979980E-1,1.078058167E1,-1.495989075E0,1.090474517E1
4.054499917E0,1.213975525E-1,9.741292877E0,-4.408332825E-1,9.752018164E0
4.064430917E0,4.171824646E-1,8.816665649E0,3.320095825E-1,8.832772200E0
4.074361917E0,3.444337463E-1,8.141868896E0,8.207432556E-1,8.190377478E0
4.084292917E0,3.031196594E-1,7.314090271E0,5.776487732E-1,7.343124412E0
4.094222917E0,2.574645996E-1,6.464307404E0,-3.704795837E-1,6.480031894E0
4.104153917E0,-4.257147217E-1,5.966742096E0,-2.574645996E-1,5.987447894E0
4.114084917E0,-6.744973755E-1,5.744753723E0,-2.163002014E-1,5.788257754E0
4.124014917E0,-8.695417786E-1,5.420078888E0,-5.858816528E-1,5.520562957E0
4.133945917E0,-1.237177277E0,5.184019775E0,-8.511300659E-1,5.397137300E0
4.143876917E0,-9.711804199E-1,4.829407196E0,-1.198557587E0,5.069803306E0
4.153807917E0,-8.325686646E-1,4.519551544E0,-1.216669922E0,4.753924951E0
4.163737917E0,-1.046773224E0,4.248016205E0,-7.197033691E-1,4.433886421E0
4.173668917E0,-1.149459686E0,3.934568024E0,-2.302212524E-1,4.105494480E0
4.183599917E0,-1.322200470E0,3.745960236E0,5.445675659E-1,4.009611702E0
4.193530917E0,-1.555864563E0,3.582051086E0,1.346450043E0,4.130948104E0
4.203460917E0,-1.505120087E0,3.570674744E0,2.126777344E0,4.420213396E0
4.213391917E0,-1.388811951E0,3.743864594E0,2.683619385E0,4.811146821E0
4.223322917E0,-1.221160583E0,3.783382416E0,3.083288269E0,5.031091554E0
4.233253917E0,-1.070124664E0,3.860322418E0,3.381318512E0,5.242191417E0
4.243183917E0,-9.427395630E-1,4.118834839E0,3.656745758E0,5.587964554E0
4.253114917E0,-7.695497131E-1,4.759203186E0,4.043541412E0,6.292253085E0
4.263045917E0,-4.493655396E-1,6.226751404E0,4.609664154E0,7.760371515E0
4.272976917E0,-1.887574768E-1,8.038883057E0,5.356760559E0,9.661995336E0
4.282906917E0,-3.053649902E-2,1.028960266E1,6.483766937E0,1.216207585E1
4.292837917E0,2.112107849E-1,1.409229492E1,7.832761688E0,1.612419120E1
4.302768917E0,5.301974487E-1,1.865869904E1,8.139473877E0,2.036367339E1
4.312698917E0,-5.535488892E-1,2.036754547E1,8.504115601E0,2.207857122E1
4.322629917E0,-2.191293182E0,1.666813843E1,1.012808853E1,1.962668545E1
4.332560917E0,-1.954785004E0,1.305300613E1,1.150702103E1,1.751038796E1
4.342491917E0,-1.836830292E0,1.037282959E1,1.000205063E1,1.452620239E1
4.352421917E0,-2.490221558E0,8.053253174E0,6.629713440E0,1.072423379E1
4.362352917E0,-3.589535522E0,5.941893768E0,3.189716949E0,7.639709487E0
4.372283917E0,-3.852239227E0,4.162394257E0,1.247505798E0,5.807025377E0
4.382214917E0,-3.949387207E0,4.316124573E0,7.463479614E-1,5.897764485E0
4.392144917E0,-3.257975006E0,6.987020416E0,-8.099656677E-1,7.751703027E0
4.402075917E0,-1.978884888E0,1.195159653E1,-1.559307404E0,1.221425743E1
4.412006917E0,-1.306932220E0,1.762629593E1,-1.678759003E0,1.775422800E1
4.421937917E0,-1.272952881E0,2.201052887E1,-2.982697449E0,2.224815215E1
4.431867917E0,-1.334474945E0,2.494996628E1,-4.140988770E0,2.532645709E1
4.441798917E0,9.400451660E-2,2.701611969E1,-2.838397522E0,2.716497857E1
4.451729917E0,1.965562592E0,2.305849960E1,1.126557312E0,2.316952679E1
4.461660917E0,5.278024292E-1,1.258433075E1,2.399510193E-1,1.259767964E1
4.471590917E0,-2.285746765E0,3.961212616E0,-2.308649139E0,5.123056169E0
4.481521917E0,-4.044439545E0,-1.578317871E0,-2.409389648E0,4.965252965E0
4.491452917E0,-4.271217957E0,-4.619543610E0,-2.064357147E0,6.621559969E0
4.501382917E0,-1.375789032E0,-3.886667633E0,-1.630858612E0,4.433811065E0
4.511313917E0,2.332898712E0,1.471440125E-1,-1.135838013E0,2.598883559E0
4.521244917E0,5.503754883E0,6.207142181E0,-5.192701721E-1,8.312013798E0
4.531175917E0,7.891439667E0,1.044468018E1,-7.996371460E-1,1.311508992E1
4.541105917E0,8.327632599E0,1.191941345E1,-1.999392242E0,1.467717449E1
4.551036917E0,6.386169891E0,1.302501434E1,-3.456013184E0,1.491235031E1
4.560967917E0,3.333717499E0,1.372765320E1,-4.126918030E0,1.471711885E1
4.570898917E0,1.586700439E-1,1.327065353E1,-4.073778534E0,1.388276244E1
4.580828917E0,-2.594853973E0,1.197824112E1,-3.322041779E0,1.269832623E1
4.590759917E0,-4.171674957E0,1.032642609E1,-1.645827484E0,1.125818350E1
4.600690917E0,-4.369264069E0,9.005722504E0,1.686991882E-1,1.001109213E1
4.610621917E0,-3.767216034E0,8.031847687E0,1.298100586E0,8.965910943E0
4.620551917E0,-3.621269531E0,7.509134674E0,1.860780487E0,8.541849951E0
4.630482917E0,-2.746638336E0,6.689888306E0,9.737251282E-1,7.297038325E0
4.640413917E0,-2.415826263E0,6.674620056E0,-4.107458496E-1,7.110237801E0
4.650344917E0,-2.233655090E0,7.485932922E0,-1.194815369E0,7.902910258E0
4.660274917E0,-1.470841370E0,8.592431946E0,-1.889371033E0,8.919808517E0
4.670205917E0,-3.382965088E-1,9.436376953E0,-2.669398956E0,9.812509634E0
4.680136917E0,8.884025574E-1,1.002600082E1,-2.898123322E0,1.047420978E1
4.690066917E0,2.047142944E0,1.043929138E1,-2.634820862E0,1.095955655E1
4.699997917E0,3.030148773E0,1.017838394E1,-3.164868622E0,1.108141212E1
4.709928917E0,3.995641022E0,9.821226654E0,-3.538940735E0,1.117791312E1
4.719859917E0,4.818030853E0,9.675429840E0,-2.728825378E0,1.114781825E1
4.729789917E0,4.381837921E0,9.105714569E0,-2.152972870E0,1.033198111E1
4.739720917E0,3.432512054E0,8.615484009E0,-1.761686554E0,9.439928137E0
4.749651917E0,2.656974792E0,8.828790436E0,-1.344504089E0,9.317443150E0
4.759582917E0,1.851948853E0,8.762777710E0,-1.086291046E0,9.021974062E0
4.769512917E0,1.119372253E0,8.643176422E0,-1.002165985E0,8.772789156E0
4.779443917E0,4.379891968E-1,8.805888062E0,-9.892927551E-1,8.872102301E0
4.789374917E0,-5.942642212E-2,9.197773132E0,-9.581575012E-1,9.247736366E0
4.799305917E0,-4.281097412E-2,9.781110077E0,-9.776170349E-1,9.829938056E0
4.809235917E0,1.080752563E-1,1.012389725E1,-1.134341125E0,1.018782143E1
4.819166917E0,2.627037048E-1,1.016760635E1,-1.319955139E0,1.025629142E1
4.829097917E0,2.671943665E-1,1.020218445E1,-1.193019104E0,1.027517664E1
4.839027917E0,2.829116821E-1,1.034453842E1,-9.830058289E-1,1.039498988E1
4.848958917E0,4.775070190E-1,1.057625656E1,-9.876461792E-1,1.063299867E1
4.858889917E0,4.266128540E-2,9.949060822E0,-1.251248016E0,1.002752476E1
4.868820917E0,2.532733154E-1,9.910291443E0,-1.643731842E0,1.004887448E1
4.878750917E0,2.404000854E-1,1.054332504E1,-1.520837402E0,1.065516033E1
4.888681917E0,5.382806396E-1,1.099403778E1,-1.100511475E0,1.106208562E1
4.898612917E0,8.382568359E-1,1.131781448E1,-4.767585754E-1,1.135882467E1
4.908543917E0,1.411115570E0,1.118638779E1,2.763253784E-1,1.127842518E1
4.918473917E0,2.092947693E0,1.055859329E1,1.911524963E-1,1.076572625E1
4.928404917E0,2.806663513E0,1.072624466E1,-2.534230042E-1,1.109026184E1
4.938335917E0,3.310815125E0,1.132978958E1,-7.274871826E-1,1.182602496E1
4.948266917E0,3.312910767E0,1.188154221E1,-9.801617432E-1,1.237364700E1
4.958196917E0,2.617157593E0,1.231983078E1,-8.979826355E-1,1.262672234E1
4.968127917E0,1.671424255E0,1.282802399E1,-5.560935974E-1,1.294840139E1
4.978058917E0,1.643133087E0,1.329819626E1,-4.825964355E-1,1.340801288E1
4.987988917E0,2.027084656E0,1.411085632E1,-9.618997192E-1,1.428812757E1
4.997919917E0,2.217189331E0,1.504536301E1,-1.211879883E0,1.525606533E1
5.007850917E0,2.006726990E0,1.470766525E1,-9.548643494E-1,1.487461382E1
5.017781917E0,1.441203003E0,1.322679474E1,-8.300239563E-1,1.333094539E1
5.027711917E0,1.116228790E0,1.144340332E1,-1.512005768E0,1.159670676E1
5.037643167E0,4.980143738E-1,1.038405624E1,-2.283202057E0,1.064376127E1
5.047574167E0,-8.193960571E-1,1.004216721E1,-2.622696075E0,1.041129515E1
5.057505167E0,-6.694079590E-1,1.013632141E1,-2.953957214E0,1.057917681E1
5.067435167E0,-5.017565918E-1,1.029603928E1,-2.984793091E0,1.073169019E1
5.077366167E0,-5.361849976E-1,1.089224945E1,-2.310146027E0,1.114743769E1
5.087297167E0,-2.291734314E-1,1.304133041E1,-1.689686279E0,1.315233284E1
5.097228167E0,-1.826202393E-2,1.474149490E1,-1.575324097E0,1.482543934E1
5.107158167E0,-9.517208862E-1,1.541165131E1,-2.311642914E0,1.561308623E1
5.117089167E0,-2.467169495E0,1.564621353E1,-3.364703064E0,1.619296606E1
5.127020167E0,-3.742517395E0,1.506362503E1,-4.083358612E0,1.604970570E1
5.136951167E0,-4.503834229E0,1.459390182E1,-4.117188263E0,1.581827211E1
5.146881167E0,-3.669768677E0,1.414378784E1,-4.416266327E0,1.526490566E1
5.156812167E0,-2.269879761E0,1.383842285E1,-5.582940216E0,1.509382399E1
5.166743167E0,-1.094074860E0,1.369157822E1,-5.443580017E0,1.477460244E1
5.176673167E0,-2.781216431E-1,1.293445267E1,-2.588716736E0,1.319389525E1
5.186604167E0,9.624984741E-2,1.220696548E1,5.780978394E-1,1.222102563E1
5.196535167E0,4.996609497E-1,1.103415436E1,9.913883972E-1,1.108986359E1
5.206466167E0,8.424481201E-1,1.043330383E1,6.146218872E-1,1.048529007E1
5.216396167E0,1.391356659E0,1.006641678E1,5.215155029E-1,1.017549009E1
5.226327167E0,2.010169830E0,9.856852570E0,-1.252894592E-1,1.006051802E1
5.236258167E0,2.064806213E0,8.973988495E0,-1.788480835E0,9.380541450E0
5.246189167E0,3.987707520E-1,8.597221985E0,-1.370549927E0,8.714909700E0
5.256119167E0,-6.179150391E-1,7.795489197E0,-1.074465637E0,7.893411634E0
5.266050167E0,-1.353485413E0,7.032076721E0,-1.297651520E0,7.277769249E0
5.275981167E0,-2.570155334E0,6.103258209E0,-2.802172852E-1,6.628271339E0
5.285912167E0,-3.317102051E0,5.231620789E0,4.370910645E-1,6.209997640E0
5.295842167E0,-3.247496796E0,4.779111786E0,3.646417236E-1,5.789568938E0
5.305773167E0,-4.058360596E0,4.569846954E0,6.676116943E-2,6.112139475E0
5.315704167E0,-4.718188477E0,4.105213165E0,3.396437073E-1,6.263340601E0
5.325634167E0,-4.641398163E0,3.588637390E0,9.689350891E-1,5.946404832E0
5.335565167E0,-4.512965240E0,3.024610291E0,1.965263214E0,5.777316174E0
5.345496167E0,-4.290228424E0,2.597847748E0,3.352428589E0,6.032715002E0
5.355427167E0,-3.581003265E0,2.214644623E0,4.518354034E0,6.176063339E0
5.365357167E0,-2.771935730E0,1.969155121E0,4.987927551E0,6.036606732E0
5.375288167E0,-1.892364807E0,2.210603027E0,4.665348358E0,5.498480300E0
5.385219167E0,-1.342857513E0,2.430495758E0,3.954776001E0,4.832269565E0
5.395150167E0,-7.879614258E-1,2.423759766E0,3.252436523E0,4.132050090E0
5.405080167E0,3.884422302E-1,2.416275330E0,2.352058868E0,3.394326849E0
5.415011167E0,8.571176147E-1,2.992277527E0,2.212249603E0,3.818693980E0
5.424942167E0,8.563691711E-1,3.673211517E0,2.197580109E0,4.365227296E0
5.434873167E0,1.521585846E0,4.107159119E0,2.506537628E0,5.046455231E0
5.444803167E0,1.776954803E0,5.401068420E0,3.348536682E0,6.598621551E0
5.454734167E0,2.064656525E0,6.490652618E0,4.408332825E0,8.113246962E0
5.464665167E0,2.650987244E0,6.840475159E0,5.701044617E0,9.290949547E0
5.474595167E0,3.501069489E0,6.937772827E0,7.020251312E0,1.047254066E1
5.484526167E0,4.114643555E0,6.680607605E0,7.770640869E0,1.104281074E1
5.494457167E0,4.135599976E0,6.336024170E0,8.059989166E0,1.105494526E1
5.504388167E0,3.858526154E0,6.417754211E0,7.913443909E0,1.089487897E1
5.514318167E0,3.119962006E0,6.930438080E0,7.570207672E0,1.072721674E1
5.524249167E0,1.867965546E0,7.152426453E0,7.336543579E0,1.041495901E1
5.534180167E0,1.149759064E0,7.981851654E0,7.758366394E0,1.119035973E1
5.544111167E0,5.269042969E-2,8.779842224E0,8.811426544E0,1.243903708E1
5.554041167E0,-2.463427277E0,1.035696259E1,8.457263031E0,1.359633943E1
5.563972167E0,-5.454507294E0,1.273551636E1,5.695057068E0,1.497927574E1
5.573903167E0,-8.283324738E0,1.427880707E1,2.415227509E0,1.668325879E1
5.583834167E0,-1.037417679E1,1.455513245E1,1.066532135E0,1.790566713E1
5.593764167E0,-1.012000534E1,1.418555099E1,1.522933044E0,1.749181781E1
5.603695167E0,-8.620573425E0,1.332094894E1,1.656305695E0,1.595322273E1
5.613626167E0,-7.148085480E0,1.173424850E1,9.607022095E-1,1.377354939E1
5.623556167E0,-5.624853058E0,9.890382843E0,-3.915856934E-1,1.138472591E1
5.633487167E0,-4.919968872E0,9.874366150E0,-3.820056152E-1,1.103880106E1
5.643418167E0,-4.273762665E0,1.134580627E1,9.699829102E-2,1.212442889E1
5.653349167E0,-3.475173340E0,1.328696960E1,4.457730103E-1,1.374114641E1
5.663279167E0,-3.171454926E0,1.565758987E1,2.081870728E0,1.611063105E1
5.673210167E0,-1.870210876E0,1.853730148E1,2.642305298E0,1.881783761E1
5.683141167E0,2.276765442E-1,2.030916687E1,2.791694641E-1,2.031236154E1
5.693072167E0,2.271825714E0,2.065928879E1,-2.869532776E0,2.098098243E1
5.703002167E0,5.198838959E0,1.822041046E1,-1.671723633E0,1.902119722E1
5.712933167E0,8.087831268E0,1.240245895E1,9.725276184E-1,1.483845722E1
5.722864167E0,9.393266602E0,5.885012054E0,-1.404828644E0,1.117319864E1
5.732794167E0,9.109905853E0,2.044747925E0,-6.418951721E0,1.133023918E1
5.742725167E0,7.194638672E0,1.673370209E0,-9.457333374E0,1.200017283E1
5.752656167E0,3.564687195E0,3.660038910E0,-9.213490448E0,1.053524019E1
5.762587167E0,-1.077459412E0,6.625522156E0,-7.256011047E0,9.884743747E0
5.772517167E0,-2.787802734E0,8.868008881E0,-3.562441864E0,9.955120171E0
5.782448167E0,-1.189576263E0,9.422755280E0,3.851490784E-1,9.505353679E0
5.792379167E0,-5.295986938E-1,9.319919128E0,2.748434601E0,9.731148961E0
5.802310167E0,-1.094224548E0,9.148076477E0,2.826272736E0,9.637035237E0
5.812240167E0,-1.854792938E0,8.962312775E0,4.038601685E-1,9.161135855E0
5.822171167E0,-1.772464142E0,8.627159729E0,-2.893333282E0,9.270431037E0
5.832102167E0,-1.448837128E0,9.007818146E0,-5.511239319E0,1.065897160E1
5.842033167E0,-1.223106537E0,9.937085724E0,-6.766229553E0,1.208401939E1
5.851963167E0,2.559677124E-2,1.048808990E1,-5.877377930E0,1.202265596E1
5.861894167E0,1.341360626E0,1.021894958E1,-4.731660461E0,1.134084607E1
5.871825167E0,2.325414276E0,9.816436615E0,-3.615581360E0,1.071645501E1
5.881756167E0,2.802771606E0,9.252559204E0,-3.190615082E0,1.018063874E1
5.891686167E0,2.774630127E0,8.642727356E0,-3.080144806E0,9.585541222E0
5.901617167E0,2.477498016E0,8.040080566E0,-2.762804718E0,8.855166958E0
5.911548167E0,2.084714813E0,7.922574921E0,-2.429298248E0,8.544865078E0
5.921478167E0,1.522184601E0,8.224946136E0,-2.407294006E0,8.704128293E0
5.931409167E0,1.093925171E0,8.757987671E0,-2.449506226E0,9.159645248E0
5.941340167E0,1.042581940E0,9.561666412E0,-2.515518951E0,9.941844762E0
5.951271167E0,1.031804352E0,1.033271301E1,-1.944456482E0,1.056458657E1
5.961201167E0,9.849517822E-1,1.074330917E1,-1.470392303E0,1.088810707E1
5.971132167E0,1.013991394E0,1.077953384E1,-1.270258484E0,1.090137996E1
5.981063167E0,1.084195404E0,1.070064789E1,-1.069675598E0,1.080849438E1
5.990994167E0,9.780661011E-1,1.042761566E1,-1.329834595E0,1.055747326E1
6.000924167E0,9.051676941E-1,9.783205719E0,-1.757644958E0,9.980969817E0
6.010855167E0,6.997947693E-1,9.561965790E0,-2.055675201E0,9.805442520E0
6.020786167E0,5.595364380E-1,9.504784698E0,-2.031725006E0,9.735600633E0
6.030716292E0,3.231779480E-1,9.395362244E0,-2.086511078E0,9.629683492E0
6.040647292E0,1.612147522E-1,9.197024689E0,-2.209555206E0,9.460094478E0
6.050578292E0,1.898052979E-1,8.923693085E0,-2.138303375E0,9.178271387E0
6.060509292E0,3.019221497E-1,8.796906738E0,-2.022294617E0,9.031411886E0
6.070439292E0,5.993536377E-1,8.525072021E0,-1.934127960E0,8.762244502E0
6.080370292E0,8.355624390E-1,8.470136261E0,-1.632205811E0,8.666341136E0
6.090301292E0,9.969268799E-1,8.562344513E0,-1.281036072E0,8.714852849E0
6.100232292E0,1.143023071E0,8.718619537E0,-9.861492920E-1,8.848351191E0
6.110162292E0,1.111588440E0,8.761430511E0,-9.276210022E-1,8.880246291E0
6.120093292E0,1.055754547E0,9.335337067E0,-8.279283142E-1,9.431256603E0
6.130024292E0,7.158114624E-1,8.773704987E0,-1.337618408E0,8.903904101E0
6.139955292E0,9.220825195E-2,8.704249420E0,-1.785187683E0,8.885907685E0
6.149885292E0,-1.960922241E-1,8.579409027E0,-1.813778229E0,8.771231549E0
6.159816292E0,1.354682922E-1,8.533753967E0,-1.937570801E0,8.751999145E0
6.169747292E0,3.923341370E-1,8.791667633E0,-2.334395599E0,9.104765162E0
6.179677292E0,3.025209045E-1,8.931476898E0,-1.988015900E0,9.155053561E0
6.189608292E0,2.100132751E-1,8.717871094E0,-7.438032532E-1,8.752064057E0
6.199539292E0,4.522096252E-1,8.295449524E0,-3.014730835E-1,8.313234170E0
6.209470292E0,7.652087402E-1,8.307424622E0,-1.058299255E-1,8.343263644E0
6.219400292E0,1.038839722E0,8.519084473E0,-9.879455566E-3,8.582195863E0
6.229331292E0,1.179397430E0,9.372459869E0,-4.216731262E-1,9.455780799E0
6.239262292E0,1.515149231E0,1.162198196E1,-1.693129120E0,1.184199427E1
6.249193292E0,1.543141022E0,1.440409653E1,-3.221750336E0,1.484045000E1
6.259123292E0,6.065386963E-1,1.691063416E1,-5.019511871E0,1.765029564E1
6.269054292E0,-6.283932495E-1,1.761955994E1,-6.411018219E0,1.876019523E1
6.278985292E0,-2.294129333E0,1.686243439E1,-7.120842133E0,1.844752329E1
6.288915292E0,-4.949158173E0,1.614752106E1,-6.296057281E0,1.802434299E1
6.298846292E0,-8.021818542E0,1.468386475E1,-5.211712189E0,1.752505066E1
6.308777292E0,-1.105990082E1,1.316676956E1,-5.379213867E0,1.801724642E1
6.318708292E0,-1.248074615E1,1.223630447E1,-5.675148468E0,1.837671031E1
6.328638292E0,-1.272354126E1,1.191282715E1,-5.360802155E0,1.823573833E1
6.338569292E0,-1.222253311E1,1.235186417E1,-4.155209198E0,1.786685836E1
6.348500292E0,-1.106439148E1,1.340267899E1,-2.143841858E0,1.751138546E1
6.358431292E0,-9.380692749E0,1.545176788E1,-7.366181946E-1,1.809135522E1
6.368361292E0,-7.886799316E0,1.666858749E1,-2.148033142E0,1.856495243E1
6.378292292E0,-6.022426300E0,1.609363312E1,-4.906347198E0,1.787027947E1
6.388223292E0,-2.612517242E0,1.450872894E1,-7.273225250E0,1.643862121E1
6.398154292E0,5.164260864E-1,1.245425125E1,-8.907975769E0,1.532080619E1
6.408084292E0,4.169279938E0,9.543853455E0,-9.869127045E0,1.434809056E1
6.418015292E0,5.665269012E0,7.662116547E0,-7.223827972E0,1.195771690E1
6.427946292E0,4.214485931E0,7.782316589E0,-3.990701294E0,9.708348983E0
6.437876292E0,3.495830383E0,8.372239838E0,-8.162525940E-1,9.109418108E0
6.447807292E0,3.233426056E0,8.083041229E0,1.939067688E0,8.919113357E0
6.457738292E0,3.663631439E0,7.026837616E0,2.420616302E0,8.286013848E0
6.467669292E0,3.863465881E0,5.989943848E0,1.747316437E0,7.338863035E0
6.477599292E0,2.769091644E0,5.630241852E0,1.331181793E0,6.414010977E0
6.487530292E0,1.445693665E0,5.434748383E0,1.292113037E0,5.770275232E0
6.497461292E0,8.545729065E-1,5.031486969E0,1.387913818E0,5.288899766E0
6.507392292E0,8.940907288E-1,4.292773132E0,1.492396545E0,4.631905315E0
6.517322292E0,1.139131165E0,3.395988007E0,1.885329437E0,4.047816873E0
6.527253292E0,1.137484589E0,2.783461761E0,2.703228607E0,4.043386634E0
6.537184292E0,1.071322174E0,2.378553772E0,4.082011414E0,4.844385041E0
6.547114292E0,9.472302246E-1,2.215093689E0,5.656587067E0,6.148240593E0
6.557045292E0,1.248254242E0,2.374661865E0,7.070696411E0,7.562532999E0
6.566976292E0,1.167572021E0,2.519710236E0,8.042774963E0,8.508724535E0
6.576907292E0,1.054856415E0,3.416195984E0,8.686436462E0,9.393470896E0
6.586837292E0,1.154249725E0,4.710254974E0,9.201066284E0,1.040088530E1
6.596768292E0,1.326391754E0,5.946683807E0,9.297914886E0,1.111636562E1
6.606699292E0,1.093027039E0,6.495742035E0,9.500144348E0,1.156036830E1
6.616630292E0,4.544549561E-1,6.958130493E0,9.604327698E0,1.186866546E1
6.626560292E0,-6.732998657E-1,7.755222931E0,9.060209198E0,1.194504944E1
6.636491292E0,-1.501527557E0,8.885971527E0,7.535030823E0,1.174698959E1
6.646422292E0,-2.393822021E0,9.840686188E0,5.784570923E0,1.166322208E1
6.656352292E0,-3.645818481E0,1.012644196E1,4.320764923E0,1.159766479E1
6.666283292E0,-4.121379547E0,1.039663010E1,3.752097473E0,1.179635207E1
6.676214292E0,-3.754342804E0,1.008602600E1,4.199816437E0,1.155255247E1
6.686145292E0,-3.240910492E0,9.226064301E0,5.225184174E0,1.108721394E1
6.696075292E0,-2.336640930E0,7.633675690E0,6.326893158E0,1.018638662E1
6.706006292E0,-1.465751953E0,5.971083069E0,7.152426453E0,9.431832588E0
6.715937292E0,-1.028660889E0,4.464017029E0,7.666158142E0,8.930597512E0
6.725868292E0,-9.083111572E-1,3.111280060E0,8.229736176E0,8.844978818E0
6.735798292E0,-8.842112732E-1,1.967059479E0,8.304430847E0,8.579902346E0
6.745729292E0,-1.287322998E0,1.580114136E0,6.353837128E0,6.672721141E0
6.755660292E0,-2.923121338E0,3.931574249E0,2.763403473E0,5.624794502E0
6.765590292E0,-4.892426147E0,9.869276733E0,-2.303709412E-1,1.101778234E1
6.775521292E0,-5.843997345E0,1.890673325E1,8.153544617E-1,1.980610183E1
6.785452292E0,-5.960754547E0,2.943479004E1,6.158193970E-1,3.003858673E1
6.795383292E0,-5.395829315E0,3.945674927E1,-6.628815308E0,4.037191139E1
6.805313292E0,-1.087638245E0,3.912833221E1,-4.874762878E0,3.944581919E1
6.815244292E0,5.751340027E0,1.719594086E1,6.024072876E0,1.910674614E1
6.825175292E0,4.177213440E0,1.303190002E0,3.364703064E0,5.519840850E0
6.835106292E0,-2.631228333E0,-4.072880402E0,-1.831441498E0,5.183232125E0
6.845036292E0,-8.169261932E0,-5.257367249E0,-2.114353180E0,9.942194943E0
6.854967292E0,-7.279512177E0,-3.453917542E0,-6.176156616E-1,8.080983419E0
6.864898292E0,-1.185834045E0,6.393205261E-1,4.905299377E-1,1.433719895E0
6.874828292E0,4.539011078E0,5.142106934E0,6.180647278E-1,6.886645721E0
6.884759292E0,7.975564728E0,1.042791504E1,-5.096900940E-1,1.313814404E1
6.894690292E0,8.778944092E0,1.374247238E1,-2.218835907E0,1.645747974E1
6.904621292E0,6.823260956E0,1.479867599E1,-2.355202332E0,1.646525673E1
6.914551292E0,3.877386932E0,1.466814743E1,-1.518741760E0,1.524779509E1
6.924482292E0,1.779798889E0,1.359023895E1,-1.109343109E0,1.375110617E1
6.934413292E0,8.150550842E-1,1.161150375E1,-8.961863708E-1,1.167452287E1
6.944344292E0,6.840774536E-1,9.571994934E0,-1.166075134E-1,9.597116561E0
6.954274292E0,9.250762939E-1,7.873327332E0,6.816824341E-1,7.956741818E0
6.964205292E0,1.178948364E0,6.550528107E0,1.307530975E0,6.782991595E0
6.974136292E0,1.209784241E0,5.896837463E0,1.381028137E0,6.176043126E0
6.984066292E0,8.542735291E-1,6.099366302E0,1.360221405E0,6.307317562E0
6.993997292E0,3.894900513E-1,6.935377808E0,1.035396881E0,7.023048806E0
7.003928292E0,-1.423539734E-1,7.970175934E0,7.613168335E-1,8.007719550E0
7.013859292E0,-7.186555481E-1,8.973988495E0,3.772155762E-1,9.010617454E0
7.023789292E0,-9.095086670E-1,9.691147156E0,-2.047741699E-1,9.735885767E0
7.033720167E0,-5.204676819E-1,1.012614258E1,-1.037043457E0,1.019240449E1
7.043651167E0,-7.319778442E-2,1.054856415E1,-1.746717682E0,1.069245464E1
7.053582167E0,-2.055226135E-1,1.078327606E1,-2.077829132E0,1.098356300E1
7.063512167E0,-4.595443726E-1,1.089808731E1,-2.074236603E0,1.110324032E1
7.073443167E0,-4.224215698E-1,1.067220703E1,-1.954335938E0,1.085789445E1
7.083374167E0,-7.292834473E-1,1.016506165E1,-2.266287231E0,1.044013364E1
7.093304167E0,-1.034349060E0,9.780361633E0,-2.380050659E0,1.011879404E1
7.103235167E0,-1.011147308E0,9.637259216E0,-2.132465515E0,9.922025663E0
7.113166167E0,-1.061442719E0,9.529034271E0,-2.174977112E0,9.831565502E0
7.123097167E0,-7.444020081E-1,9.406588898E0,-2.122136993E0,9.671686226E0
7.133027167E0,-2.995271301E-1,9.349856873E0,-1.953437805E0,9.556435491E0
7.142958167E0,2.404000854E-1,9.235943756E0,-2.004781036E0,9.454078288E0
7.152889167E0,8.373587036E-1,9.079968109E0,-1.922003174E0,9.318856510E0
7.162820167E0,1.444945221E0,8.984466705E0,-1.975591736E0,9.311899451E0
7.172750167E0,1.948198700E0,8.997190247E0,-2.097737732E0,9.441684918E0
7.182681167E0,2.251468048E0,9.047036591E0,-2.130818939E0,9.563386889E0
7.192612167E0,2.318079529E0,9.090895386E0,-1.850901031E0,9.562620260E0
7.202542167E0,2.121238861E0,9.163644104E0,-1.472637634E0,9.520540382E0
7.212473167E0,1.880389709E0,9.196875000E0,-1.154998169E0,9.457927680E0
7.222404167E0,1.691482544E0,9.279652863E0,-9.690847778E-1,9.482204161E0
7.232335167E0,1.541494446E0,9.308842163E0,-1.071172485E0,9.496218091E0
7.242265167E0,1.348395996E0,9.285041656E0,-1.359922028E0,9.480483018E0
7.252196167E0,9.668394470E-1,9.188492432E0,-1.616189117E0,9.379511658E0
7.262127167E0,6.483018494E-1,9.211843872E0,-1.585353241E0,9.369722926E0
7.272058167E0,4.590953064E-1,9.287137299E0,-1.298399963E0,9.388691611E0
7.281988167E0,4.116439819E-1,9.011859741E0,-9.910890198E-1,9.075534376E0
7.291919167E0,5.906716919E-1,9.087153168E0,-6.800358582E-1,9.131686291E0
7.301850167E0,8.719367981E-1,9.268575897E0,-6.767427063E-1,9.334064154E0
7.311780167E0,1.238374786E0,9.740245056E0,-9.952803040E-1,9.868967968E0
7.321711167E0,1.436412964E0,1.023122406E1,-1.449735260E0,1.043278296E1
7.331642167E0,1.432071991E0,1.064705933E1,-1.725761261E0,1.088066884E1
7.341573167E0,8.836125183E-1,1.065020279E1,-1.620081024E0,1.080889694E1
7.351503167E0,8.412506104E-2,1.046713348E1,-9.981243896E-1,1.051495186E1
7.361434167E0,-5.101391602E-1,1.014979340E1,-3.025209045E-1,1.016710710E1
7.371365167E0,-7.120692444E-1,1.006477020E1,2.399510193E-1,1.009278051E1
7.381296167E0,-2.920426941E-1,9.895621948E0,5.798941040E-1,9.916899710E0
7.391226167E0,6.825805664E-1,9.404942322E0,3.686833191E-1,9.436884215E0
7.401157167E0,1.925745392E0,9.247469788E0,-1.519340515E-1,9.447077683E0
7.411088167E0,2.907404022E0,9.591005402E0,-5.724096680E-1,1.003832833E1
7.421018167E0,3.287313995E0,1.003333557E1,-5.117857361E-1,1.057053360E1
7.430949167E0,3.324736176E0,1.050036438E1,-2.987786865E-1,1.101820273E1
7.440880167E0,3.785478058E0,1.165790726E1,-1.066681824E0,1.230343269E1
7.450811167E0,4.669389954E0,1.408885208E1,-2.866838379E0,1.511680250E1
7.460741167E0,5.295238495E0,1.648177597E1,-4.430636444E0,1.786949997E1
7.470672167E0,5.463638306E0,1.663116531E1,-3.785328369E0,1.791021256E1
7.480603167E0,4.508773956E0,1.453567291E1,-1.552272034E0,1.529785534E1
7.490534167E0,3.580404510E0,1.344219681E1,-1.671573944E0,1.401092827E1
7.500464167E0,3.295696564E0,1.342662918E1,-3.305576019E0,1.421488023E1
7.510395167E0,2.424059143E0,1.258268417E1,-4.041894836E0,1.343640270E1
7.520326167E0,7.741900635E-1,1.236294113E1,-3.835623779E0,1.296740890E1
7.530256167E0,-1.564097443E0,1.296858170E1,-3.388653259E0,1.349494286E1
7.540187167E0,-3.722459106E0,1.355431366E1,-3.226839752E0,1.442181041E1
7.550118167E0,-5.532644806E0,1.429527283E1,-3.790866852E0,1.579036590E1
7.560049167E0,-6.790479126E0,1.534174667E1,-4.115691376E0,1.727479995E1
7.569979167E0,-7.760312347E0,1.562555649E1,-4.091292114E0,1.791979728E1
7.579910167E0,-8.157735901E0,1.479912506E1,-3.978875885E0,1.736070883E1
7.589841167E0,-7.163802795E0,1.425500656E1,-3.793860626E0,1.639873962E1
7.599771167E0,-5.645360413E0,1.298849030E1,-4.505181427E0,1.486161613E1
7.609702167E0,-4.482428741E0,1.186462738E1,-5.335355072E0,1.375963532E1
7.619633167E0,-3.134032745E0,1.219993011E1,-6.053112488E0,1.397500007E1
7.629564167E0,-1.558858337E0,1.254017258E1,-5.988446960E0,1.398382868E1
7.639494167E0,-1.969903564E-1,1.179681839E1,-4.724325714E0,1.270916924E1
7.649425167E0,2.365081787E-1,1.009770172E1,-2.389780426E0,1.037933363E1
7.659356167E0,3.177891541E-1,8.806786194E0,-5.336402893E-1,8.828660429E0
7.669287167E0,-2.001338196E-1,7.969726868E0,4.067042542E-1,7.982606607E0
7.679217167E0,-7.846682739E-1,7.987539825E0,3.923341370E-1,8.035572340E0
7.689148167E0,-8.173004150E-1,7.015461273E0,-2.794688416E-1,7.068435448E0
7.699079167E0,-8.262817383E-1,6.431824951E0,1.103205872E-1,6.485621354E0
7.709009167E0,-8.379574585E-1,6.440656586E0,7.051835632E-1,6.533109047E0
7.718940167E0,-1.403182068E0,6.422544250E0,4.303550720E-1,6.588110507E0
7.728871167E0,-1.175655212E0,6.463409271E0,-4.334985352E-1,6.583748595E0
7.738802167E0,-5.798941040E-1,7.411537628E0,-1.125060425E0,7.518838218E0
7.748732167E0,-5.942642212E-1,7.846682739E0,-1.491648102E0,8.009281743E0
7.758663167E0,-2.568658447E-1,7.417076111E0,-1.376687164E0,7.548129944E0
7.768594167E0,-4.805007935E-2,7.078180847E0,-8.858578491E-1,7.133561316E0
7.778525167E0,7.409591675E-2,6.422544250E0,3.312611389E-1,6.431508283E0
7.788455167E0,6.042933655E-1,5.390141144E0,8.824150085E-1,5.495220493E0
7.798386167E0,9.422904968E-1,4.650080109E0,1.099912720E0,4.870417270E0
7.808317167E0,1.021625519E0,3.920946350E0,1.748064880E0,4.412852797E0
7.818247167E0,1.041534119E0,3.346890106E0,2.096689911E0,4.084430840E0
7.828178167E0,8.229885864E-1,2.933300171E0,2.371817780E0,3.860968750E0
7.838109167E0,5.460644531E-1,2.593357086E0,2.611918488E0,3.720995236E0
7.848040167E0,2.838098145E-1,2.371368713E0,2.839894409E0,3.710651943E0
7.857970167E0,4.176315308E-2,2.281555481E0,3.032244415E0,3.794963210E0
7.867901167E0,-3.088078308E-1,2.482437744E0,3.283122711E0,4.127560317E0
7.877832167E0,-7.238946533E-1,3.048261108E0,3.599265289E0,4.771858116E0
7.887763167E0,-1.256337433E0,3.765419769E0,3.929179230E0,5.585268051E0
7.897693167E0,-1.573976898E0,5.009183350E0,4.489464111E0,6.908300016E0
7.907624167E0,-1.858086090E0,6.615792389E0,5.205125885E0,8.620587470E0
7.917555167E0,-2.389331360E0,9.090296631E0,5.641468506E0,1.096214231E1
7.927485167E0,-2.992127838E0,1.285107605E1,4.887037354E0,1.407075402E1
7.937416167E0,-3.396287384E0,1.755504410E1,3.881428528E0,1.829698961E1
7.947347167E0,-3.412902832E0,2.125460083E1,3.943249969E0,2.188504472E1
7.957278167E0,-4.194277954E0,2.054073532E1,4.580923920E0,2.145923202E1
7.967208167E0,-2.876268768E0,1.683983139E1,5.195545807E0,1.785627451E1
7.977139167E0,-1.481918335E0,1.333891159E1,4.788392487E0,1.424960866E1
7.987070167E0,-9.060658264E-1,1.014530273E1,3.945495300E0,1.092314314E1
7.997000167E0,-9.548643494E-1,7.605534210E0,3.604205017E0,8.470313474E0
8.006931167E0,-1.213376770E0,5.183720398E0,3.701951752E0,6.484418796E0
8.016862167E0,-1.754651184E0,3.033741302E0,3.739074554E0,5.124750296E0
8.026793167E0,-2.445165253E0,2.298769684E0,3.664230194E0,4.968878957E0
8.036723625E0,-2.293081512E0,4.684059448E0,3.723357239E0,6.407965735E0
8.046654625E0,-1.728305969E0,8.903185730E0,2.638263702E0,9.445326518E0
8.056585625E0,-1.096020813E0,1.375220215E1,1.834734650E0,1.391727620E1
8.066516625E0,-6.152206421E-2,1.858654907E1,6.921606445E-1,1.859953434E1
8.076446625E0,6.096821594E-1,2.302182587E1,-1.689386902E0,2.309177790E1
8.086377625E0,2.383044434E-1,2.590827347E1,-3.119962006E0,2.609654356E1
8.096308625E0,3.381468201E-1,2.456212280E1,-8.195457458E-1,2.457811781E1
8.106238625E0,2.326312408E0,1.657128983E1,2.039957886E0,1.685766307E1
8.116169625E0,5.099894714E-1,7.043453064E0,-1.009800110E0,7.133723893E0
8.126100625E0,-3.399580536E0,1.558558960E0,-3.366649017E0,5.031955828E0
8.136031625E0,-6.175857239E0,-1.056652679E0,-2.246827698E0,6.656272397E0
8.145961625E0,-5.872288513E0,-1.451980591E0,-1.849254456E0,6.325485124E0
8.155892625E0,-3.662733307E0,3.535647583E-1,-2.103725281E0,4.238665282E0
8.165823625E0,-1.390608215E-1,4.037853241E0,-1.762434998E0,4.407921713E0
8.175753625E0,3.397634583E0,7.583380280E0,-1.908231812E0,8.526014653E0
8.185684625E0,6.235732727E0,1.062071411E1,-2.532882843E0,1.257375944E1
8.195615625E0,8.070916443E0,1.256696686E1,-3.869004364E0,1.542846535E1
8.205546625E0,7.396419067E0,1.324041641E1,-4.915627899E0,1.594299343E1
8.215476625E0,4.800367584E0,1.298205368E1,-5.259612579E0,1.480678126E1
8.225407625E0,2.277214508E0,1.185160446E1,-4.303700409E0,1.281280888E1
8.235338625E0,-6.915618896E-2,1.052775742E1,-2.662962341E0,1.085955005E1
8.245269625E0,-1.535506897E0,9.377848663E0,-1.008752289E0,9.556118886E0
8.255199625E0,-2.085762634E0,8.769214325E0,7.979905701E-1,9.049105734E0
8.265130625E0,-1.791025543E0,8.376131744E0,1.150956573E0,8.642456626E0
8.275061625E0,-1.085392914E0,8.229885864E0,3.731739807E-1,8.309534159E0
8.284991625E0,-5.792953491E-1,8.445437622E0,-6.494993591E-1,8.490161903E0
8.294922625E0,-4.707710266E-1,8.851543121E0,-9.373507690E-1,8.913476732E0
8.304853625E0,-3.561094666E-1,9.244625702E0,-1.271605682E0,9.338463435E0
8.314784625E0,-5.402265930E-1,9.892179108E0,-1.073268127E0,9.964886188E0
8.324714625E0,-5.806425476E-1,1.011611343E1,-8.879534912E-1,1.017159566E1
8.334645625E0,-1.571731567E-2,9.843829651E0,-1.026864624E0,9.897256195E0
8.344576625E0,3.246748352E-1,9.689500580E0,-1.492695923E0,9.809178169E0
8.354506625E0,7.682025146E-1,9.503138123E0,-2.352358246E0,9.820048808E0
8.364437625E0,1.651066589E0,9.547445984E0,-2.972967682E0,1.013500284E1
8.374368625E0,2.225721588E0,9.671987000E0,-2.990032196E0,1.036539732E1
8.384299625E0,2.655178528E0,9.554780731E0,-2.588267670E0,1.024904568E1
8.394229625E0,2.722388763E0,9.295819244E0,-2.243833923E0,9.942758505E0
8.404160625E0,2.318678284E0,9.131311340E0,-1.975891113E0,9.626071965E0
8.414091625E0,1.888323212E0,8.977131958E0,-1.669627991E0,9.324286588E0
8.424022625E0,1.293460236E0,8.818312225E0,-1.510658569E0,9.039787564E0
8.433952625E0,6.679110718E-1,8.655600586E0,-1.541793823E0,8.817179532E0
8.443883625E0,2.739303589E-2,8.671916656E0,-1.619182892E0,8.821827595E0
8.453814625E0,-6.807843018E-1,8.940607910E0,-1.520687714E0,9.094527376E0
8.463744625E0,-1.135239258E0,9.384434967E0,-1.223106537E0,9.531651348E0
8.473675625E0,-1.329235840E0,9.840536499E0,-1.045875092E0,9.984832558E0
8.483606625E0,-1.374890900E0,1.019245468E1,-8.656498718E-1,1.032113400E1
8.493537625E0,-1.365161133E0,1.038525375E1,-5.492079163E-1,1.048898421E1
8.503467625E0,-1.256786499E0,1.021086639E1,-1.722917175E-1,1.028936292E1
8.513398625E0,-9.575587463E-1,9.696236572E0,2.612068176E-1,9.746904710E0
8.523329625E0,-4.463717651E-1,9.599238281E0,7.292834473E-1,9.637244299E0
8.533259625E0,3.782633972E-1,9.153465271E0,7.185058594E-1,9.189410228E0
8.543190625E0,1.130000153E0,8.714577942E0,-1.914518738E-1,8.789620178E0
8.553121625E0,1.794169006E0,8.404123535E0,-1.235530701E0,8.681870244E0
8.563052625E0,2.106269989E0,8.005053406E0,-2.247426453E0,8.577189456E0
8.572982625E0,1.435664520E0,7.617509308E0,-2.778522034E0,8.234547065E0
8.582913625E0,1.582209778E-1,7.125332794E0,-2.761906586E0,7.643528589E0
8.592844625E0,-9.613009644E-1,6.584357758E0,-2.127675476E0,6.986048207E0
8.602774625E0,-2.172282715E0,6.603218536E0,-7.379653931E-1,6.990414877E0
8.612705625E0,-3.371738434E0,8.050858154E0,7.958949280E-1,8.764609850E0
8.622636625E0,-3.470682678E0,1.178858551E1,1.363065491E0,1.236423609E1
8.632567625E0,-2.736160126E0,1.745430359E1,-3.576063538E-1,1.767108283E1
8.642497625E0,-2.102527771E0,2.295177155E1,-3.784130859E0,2.335645706E1
8.652428625E0,-3.324885864E0,2.684697144E1,-6.501130829E0,2.782228322E1
8.662359625E0,-5.311255188E0,2.577415237E1,-6.921756134E0,2.721078959E1
8.672290625E0,-6.613097992E0,2.042652283E1,-4.871619415E0,2.201609810E1
8.682220625E0,-8.321495361E0,1.614931732E1,-2.489772491E0,1.833703090E1
8.692151625E0,-1.012928604E1,1.424527679E1,-9.298663330E-1,1.750414231E1
8.702082625E0,-1.048494644E1,1.355176895E1,2.294728088E-1,1.713584551E1
8.712012625E0,-8.449030151E0,1.335537735E1,-9.683363342E-1,1.583318951E1
8.721943625E0,-6.425987091E0,1.268851410E1,-3.964655457E0,1.476516824E1
8.731874625E0,-3.670217743E0,1.043510010E1,-6.458469543E0,1.280912336E1
8.741805625E0,-2.114802246E0,8.276588745E0,-5.638624420E0,1.023564337E1
8.751735625E0,-1.034349060E0,7.215894470E0,-3.299588470E0,8.001643272E0
8.761666625E0,4.653822327E-1,6.678661652E0,-1.851499786E0,6.946161065E0
8.771597625E0,1.169068909E0,6.432872772E0,-1.565444641E0,6.723034370E0
8.781527625E0,1.830992432E0,6.115382996E0,-1.851350098E0,6.646648753E0
8.791458625E0,2.600242767E0,5.855673065E0,-3.565884705E0,7.332510022E0
8.801389625E0,3.531007233E0,5.596711578E0,-3.524720306E0,7.497656021E0
8.811320625E0,2.398162994E0,6.532116394E0,-5.915698242E-1,6.983529565E0
8.821250625E0,1.371148682E0,7.358547821E0,1.251397705E0,7.589088941E0
8.831181625E0,3.444337463E-1,7.945626984E0,2.875370636E0,8.456913093E0
8.841112625E0,-1.120719452E0,8.562793579E0,3.796555023E0,9.433518750E0
8.851043625E0,-2.582429810E0,9.302405548E0,4.063749390E0,1.047462418E1
8.860973625E0,-1.624272308E0,8.945697327E0,3.109783173E0,9.609084898E0
8.870904625E0,-1.190025330E0,7.785609741E0,2.988535309E0,8.423967154E0
8.880835625E0,-1.512604523E0,6.913074188E0,3.200644226E0,7.766768352E0
8.890765625E0,-1.462758179E0,5.826034698E0,3.459605713E0,6.931898260E0
8.900696625E0,-1.335373077E0,4.808151398E0,3.877536621E0,6.319559428E0
8.910627625E0,-1.036893768E0,4.067491608E0,4.340074768E0,6.037870954E0
8.920558625E0,-6.520440674E-1,3.821702728E0,4.784949646E0,6.158434568E0
8.930488625E0,-3.905378723E-1,3.859274597E0,4.972359924E0,6.306416055E0
8.940419625E0,-3.101550293E-1,3.929927673E0,4.861889648E0,6.259273010E0
8.950350625E0,-3.338058472E-1,3.992796936E0,4.702471161E0,6.177951824E0
8.960280625E0,-6.068380737E-1,3.652105408E0,4.765190735E0,6.034332531E0
8.970211625E0,-1.202299805E0,2.989433441E0,4.782704315E0,5.766844691E0
8.980142625E0,-1.970202942E0,2.622845764E0,4.623136139E0,5.668721840E0
8.990073625E0,-2.484084320E0,2.852468262E0,4.295467529E0,5.723485947E0
9.000003625E0,-2.722089386E0,3.382665710E0,3.896098022E0,5.833676177E0
9.009934625E0,-2.773582306E0,4.169729004E0,3.708388367E0,6.231496052E0
9.019865625E0,-2.799777832E0,5.516029358E0,3.849245453E0,7.285741304E0
9.029795625E0,-2.458487549E0,7.966284027E0,4.365521851E0,9.410824791E0
9.039726375E0,-1.842518463E0,1.096230377E1,5.333858185E0,1.232951830E1
9.049657375E0,-1.574575653E0,1.340432556E1,6.173462219E0,1.484139037E1
9.059588375E0,-1.534459076E0,1.549757263E1,6.651118927E0,1.693418747E1
9.069518375E0,-1.272503815E0,1.703906708E1,6.906637573E0,1.842961517E1
9.079449375E0,-1.951641541E0,1.589334961E1,7.182064819E0,1.754963024E1
9.089380375E0,-3.359014893E0,1.287861877E1,8.256380768E0,1.566236336E1
9.099311375E0,-5.111869812E0,9.645941162E0,9.367370453E0,1.438481919E1
9.109241375E0,-6.069129181E0,6.948400726E0,9.878407745E0,1.351656544E1
9.119172375E0,-6.416706390E0,4.821024628E0,9.232500916E0,1.223337535E1
9.129103375E0,-6.221811676E0,3.510350189E0,7.357649689E0,1.025516981E1
9.139033375E0,-6.033952332E0,4.273912354E0,4.713248749E0,8.768672722E0
9.148964375E0,-6.610852661E0,8.129145355E0,1.634151764E0,1.060456643E1
9.158895375E0,-7.183711395E0,1.312485672E1,-2.143542480E-1,1.496374021E1
9.168826375E0,-6.931934967E0,1.727991623E1,-1.424886932E0,1.867290899E1
9.178756375E0,-5.144951019E0,2.159918427E1,-3.594475250E0,2.249256620E1
9.188687375E0,-3.174299011E0,2.396127228E1,-5.252876587E0,2.473482274E1
9.198618375E0,-1.498683472E0,2.127660507E1,-1.016386414E0,2.135352469E1
9.208548375E0,1.698068848E0,1.527438675E1,5.393434296E0,1.628740194E1
9.218479375E0,2.278861084E0,8.086633759E0,3.524570618E0,9.110952279E0
9.228410375E0,3.459306335E-1,2.527793427E0,-1.193168793E0,2.816568724E0
9.238341375E0,-9.235794067E-1,2.797682190E-1,-3.138523407E0,3.283534430E0
9.248271375E0,-5.438191223E-1,1.589694214E-1,-3.885769501E0,3.926858175E0
9.258202375E0,2.360142059E0,2.729424133E0,-3.626658325E0,5.115923890E0
9.268133375E0,5.501958618E0,6.744674377E0,-3.233126678E0,9.285218856E0
9.278064375E0,7.313341827E0,1.029394363E1,-3.135230255E0,1.301076143E1
9.287994375E0,7.373217316E0,1.233464996E1,-3.160527649E0,1.471383221E1
9.297925375E0,5.457650757E0,1.288281006E1,-2.670746155E0,1.424379275E1
9.307856375E0,2.281705170E0,1.268776566E1,-1.992656250E0,1.304439553E1
9.317786375E0,-9.931846619E-1,1.186477707E1,-1.739233246E0,1.203263408E1
9.327717375E0,-3.691323853E0,1.060035645E1,-1.480571136E0,1.132190441E1
9.337648375E0,-4.458777924E0,9.129664764E0,-4.343966675E-1,1.016957127E1
9.347579375E0,-3.615281982E0,7.397766266E0,6.559359741E-1,8.259991619E0
9.357509375E0,-2.260299683E0,6.428232422E0,3.565585327E-1,6.823361394E0
9.367440375E0,-1.343755646E0,6.430926819E0,-9.909393311E-2,6.570564557E0
9.377371375E0,-3.061134338E-1,6.682852936E0,-4.631369019E-1,6.705872396E0
9.387301375E0,5.803431702E-1,7.125482483E0,-7.349716187E-1,7.186757411E0
9.397232375E0,1.047821045E0,7.774682465E0,-8.270301819E-1,7.888446950E0
9.407163375E0,1.608854370E0,8.434510345E0,-1.086440735E0,8.655040764E0
9.417094375E0,2.015259247E0,9.100475464E0,-1.057251434E0,9.380709147E0
9.427024375E0,2.911146240E0,9.447004852E0,-1.084045715E0,9.944638165E0
9.436955375E0,3.556903381E0,9.920619965E0,-1.500629425E0,1.064528773E1
9.446886375E0,3.670367432E0,1.008976822E1,-2.042652283E0,1.092920162E1
9.456816375E0,4.192930756E0,9.944121094E0,-2.755769348E0,1.113824391E1
9.466747375E0,3.390898590E0,1.051114197E1,-2.840493164E0,1.140397738E1
9.476678375E0,2.829416199E0,1.122126526E1,-2.878214722E0,1.192503711E1
9.486609375E0,2.839744720E0,1.099972595E1,-1.446292419E0,1.145206893E1
9.496539375E0,1.600172424E0,1.050260971E1,-4.110452271E-1,1.063176000E1
9.506470375E0,8.767268372E-1,1.030427216E1,-3.614982605E-1,1.034781888E1
9.516401375E0,9.325607300E-2,1.020862106E1,-4.794529724E-1,1.022029921E1
9.526331375E0,-9.134005737E-1,1.004141876E1,-7.753875732E-2,1.008317428E1
9.536262375E0,-1.756297760E0,9.748777313E0,5.108876038E-1,9.918883358E0
9.546193375E0,-2.507585449E0,9.334588623E0,8.491841125E-1,9.702764720E0
9.556124375E0,-2.905907135E0,8.914113007E0,9.154962158E-1,9.420394912E0
9.566054375E0,-2.774630127E0,8.752299500E0,6.337820435E-1,9.203423197E0
9.575985375E0,-2.164349213E0,8.885672150E0,4.302053833E-1,9.155580470E0
9.585916375E0,-1.273851013E0,9.170829163E0,2.856060791E-1,9.263280994E0
9.595847375E0,-3.010240173E-1,9.391620026E0,6.810836792E-2,9.396689891E0
9.605777375E0,6.988966370E-1,9.396110687E0,-2.737806702E-1,9.426044155E0
9.615708375E0,1.672921143E0,9.456734619E0,-9.726773071E-1,9.652698895E0
9.625639375E0,2.419418793E0,8.844058685E0,-2.179916840E0,9.424595416E0
9.635569375E0,2.635419617E0,8.263715515E0,-3.611539764E0,9.395618667E0
9.645500375E0,2.241438904E0,8.587043152E0,-4.634063416E0,1.001178816E1
9.655431375E0,1.437760162E0,9.466165009E0,-4.886887665E0,1.074974908E1
9.665362375E0,3.921844482E-1,1.083461929E1,-4.338877258E0,1.167769839E1
9.675292375E0,-4.589456177E-1,1.228255829E1,-3.179837494E0,1.269579598E1
9.685223375E0,-1.233734436E0,1.282158737E1,-1.700763245E0,1.299260555E1
9.695154375E0,-1.620679779E0,1.294508057E1,-3.200344849E-1,1.305006268E1
9.705084375E0,-1.508263550E0,1.281949173E1,9.512718201E-1,1.294291873E1
9.715015375E0,-7.794291687E-1,1.271575745E1,1.749412079E0,1.285917726E1
9.724946375E0,2.683918762E-1,1.242730728E1,1.816023560E0,1.256216311E1
9.734877375E0,1.404978333E0,1.236413864E1,1.152453461E0,1.249696113E1
9.744807375E0,2.314936066E0,1.305674835E1,-1.212478638E-1,1.326093162E1
9.754738375E0,3.274291077E0,1.380564102E1,-6.195616150E-1,1.420213233E1
9.764669375E0,4.259392548E0,1.420351364E1,-8.864566040E-1,1.485489919E1
9.774599375E0,4.831802216E0,1.409962967E1,-1.295705566E0,1.496077279E1
9.784530375E0,4.821623383E0,1.366223923E1,-1.477128296E0,1.456319816E1
9.794461375E0,4.181105347E0,1.335253326E1,-1.392703857E0,1.406098896E1
9.804392375E0,3.109783173E0,1.304911423E1,-1.289718018E0,1.347640553E1
9.814322375E0,1.953886871E0,1.247386047E1,-1.813179474E0,1.275548858E1
9.824253375E0,1.651066589E-1,1.161434784E1,-2.440375214E0,1.186910979E1
9.834184375E0,-2.172432404E0,1.077309723E1,-2.101479950E0,1.118907076E1
9.844114375E0,-3.850592651E0,9.871821442E0,-1.687440948E0,1.072974274E1
9.854045375E0,-5.059329071E0,9.456584930E0,-1.890718231E0,1.089029957E1
9.863976375E0,-5.784271545E0,1.014620087E1,-2.583028564E0,1.196140568E1
9.873907375E0,-5.644162903E0,1.144055923E1,-2.930007019E0,1.308922884E1
9.883837375E0,-4.796026611E0,1.250798950E1,-2.756667480E0,1.367665486E1
9.893768375E0,-3.884122925E0,1.301887711E1,-2.003433838E0,1.373285546E1
9.903699375E0,-3.116968231E0,1.286080582E1,-1.380579071E0,1.330495456E1
9.913629375E0,-2.214494934E0,1.283146683E1,-1.653012543E0,1.312566110E1
9.923560375E0,-1.943857727E0,1.211745163E1,-2.431693268E0,1.251096915E1
9.933491375E0,-1.534459076E0,1.150956573E1,-3.015329590E0,1.199653619E1
9.943422375E0,-1.148262177E0,1.101170105E1,-3.427272949E0,1.158974831E1
9.953352375E0,-8.086184692E-1,1.088506439E1,-3.689826965E0,1.152186242E1
9.963283375E0,-2.432441711E-1,1.054512131E1,-3.591930542E0,1.114274276E1
9.973214375E0,2.719844055E-1,9.896819458E0,-2.558928680E0,1.022590470E1
9.983145375E0,7.943980408E-1,9.170380096E0,-1.254391479E0,9.289802869E0
9.993075375E0,7.812254333E-1,8.539741516E0,-1.017733612E0,8.635582206E0
1.000300638E1,6.978488159E-1,7.667954407E0,-9.240284729E-1,7.754891771E0
1.001293737E1,3.115022278E-1,7.017107849E0,4.909790039E-2,7.024190118E0
1.002286737E1,4.273612976E-1,6.585555267E0,1.398092651E-1,6.600888008E0
1.003279837E1,1.164578247E-1,6.061345367E0,4.781057739E-1,6.081287300E0
1.004272875E1,-5.122348022E-1,5.895340576E0,9.015751648E-1,5.985838519E0
1.005265975E1,-5.771997070E-1,5.992937622E0,6.746470642E-1,6.058350395E0
1.006258975E1,-7.698490906E-1,5.654790802E0,5.143304443E-1,5.730083982E0
1.007252075E1,-6.179150391E-1,4.997657318E0,7.649093628E-1,5.093474649E0
1.008245175E1,-7.053332520E-1,4.569846954E0,1.024020538E0,4.735991369E0
1.009238175E1,-7.613168335E-1,4.040397949E0,1.273851013E0,4.304313570E0
1.010231275E1,-8.791218567E-1,3.724554749E0,1.287173309E0,4.037570859E0
1.011224375E1,-9.690847778E-1,3.490291901E0,1.218017120E0,3.821626429E0
1.012217475E1,-9.696835327E-1,3.366499329E0,1.205443268E0,3.704955783E0
1.013210475E1,-8.400531006E-1,2.974314880E0,1.284329224E0,3.346900025E0
1.014203575E1,-8.101153564E-1,2.602188721E0,1.497635651E0,3.109756513E0
1.015196675E1,-8.690927124E-1,2.525099030E0,1.737137604E0,3.185764321E0
1.016189675E1,-1.066382446E0,2.560575256E0,1.976489868E0,3.405910945E0
1.017182775E1,-1.224304047E0,3.103196869E0,2.451901245E0,4.140117259E0
1.018175875E1,-1.359622650E0,4.149521027E0,3.102448425E0,5.356517967E0
1.019168975E1,-1.616039429E0,5.198389893E0,3.595822449E0,6.524168912E0
1.020161975E1,-1.663341064E0,7.038213959E0,4.060306549E0,8.293928412E0
1.021155075E1,-2.056124268E0,1.033885025E1,4.426145782E0,1.143285782E1
1.022148175E1,-2.523003387E0,1.539533524E1,4.309987335E0,1.618511303E1
1.023141175E1,-2.530936890E0,2.117107452E1,4.697381744E0,2.183312697E1
1.024134275E1,-1.217867432E0,2.517794220E1,6.684200134E0,2.607854494E1
1.025127375E1,-1.236129456E0,2.288186691E1,8.269403687E0,2.436166839E1
1.026120475E1,-9.999206543E-2,1.738694366E1,9.151369629E0,1.964849548E1
1.027113475E1,-1.013392639E-1,1.253822662E1,8.794661407E0,1.531546492E1
1.028106575E1,-2.168390808E0,9.278754730E0,7.851921844E0,1.234705976E1
1.029099675E1,-3.302582245E0,6.265071716E0,5.875132599E0,9.201921329E0
1.030092675E1,-3.145708466E0,3.321892090E0,4.777016144E0,6.614403378E0
1.031085775E1,-2.638712769E0,1.958826599E0,4.115242310E0,5.266405414E0
1.032078875E1,-1.536105652E0,2.198627930E0,3.535198517E0,4.437478327E0
1.033071975E1,-8.776249695E-1,5.852379913E0,3.724554749E0,6.992344693E0
1.034064975E1,4.311035156E-2,1.089254883E1,2.955903168E0,1.128657796E1
1.035058075E1,1.067430267E0,1.589080490E1,2.914888458E0,1.619116001E1
1.036051175E1,1.868863678E0,2.066138443E1,1.967358856E0,2.083880896E1
1.037044175E1,2.327210541E0,2.387056091E1,-2.017953644E0,2.406847989E1
1.038037275E1,1.033151550E0,2.486045242E1,-5.715414734E0,2.552989351E1
1.039030375E1,-9.999206543E-1,2.250525009E1,-4.576433258E0,2.298760241E1
1.040023475E1,-1.373394012E0,1.391027344E1,-1.728755035E0,1.408440670E1
1.041016475E1,-1.337768097E0,3.796255646E0,-3.119662628E0,5.092492054E0
1.042009575E1,-4.949457550E0,-1.436412964E0,-4.038751373E0,6.547665607E0
1.043002675E1,-9.043593750E0,-2.816992035E0,-2.832409973E0,9.886585775E0
1.043995775E1,-8.182584229E0,-2.495460663E0,-1.969304810E0,8.778392222E0
1.044988775E1,-3.745810547E0,-3.013233948E-1,-1.053209839E0,3.902709752E0
1.045981875E1,1.389560394E0,3.908971252E0,-5.700146484E-1,4.187582959E0
1.046974975E1,5.766757965E0,8.236472168E0,-1.128652954E0,1.011774820E1
1.047967975E1,9.052126007E0,1.163380737E1,-2.575993195E0,1.496403021E1
1.048961075E1,9.595346375E0,1.333696564E1,-4.262685699E0,1.697397460E1
1.049954175E1,7.163952484E0,1.365385666E1,-6.011349335E0,1.654951171E1
1.050947175E1,4.223167877E0,1.278745834E1,-7.125632172E0,1.523577604E1
1.051940275E1,1.537752228E0,1.102083206E1,-6.034401398E0,1.265849207E1
1.052933375E1,-8.622070313E-1,9.617350616E0,-4.117787018E0,1.049728554E1
1.053926475E1,-2.326162720E0,9.180558929E0,-2.830464020E0,9.884595177E0
1.054919475E1,-1.766177216E0,9.421408081E0,-1.911524963E0,9.774264160E0
1.055912575E1,-9.560618591E-1,9.344468079E0,-1.331630859E0,9.487169161E0
1.056905675E1,-7.322772217E-1,9.225764923E0,-4.966671753E-1,9.268098329E0
1.057898775E1,-5.420228577E-1,9.311386871E0,-4.897814941E-1,9.340000008E0
1.058891775E1,-7.702981567E-1,9.288484497E0,-1.086440735E0,9.383477872E0
1.059884875E1,-1.227597198E0,9.293424225E0,-1.168619843E0,9.446713769E0
1.060877975E1,-1.716929626E0,9.386380920E0,-1.452579346E0,9.652045425E0
1.061870975E1,-1.252595215E0,9.447004852E0,-2.097288666E0,9.757741296E0
1.062864075E1,-4.662803650E-1,8.672814789E0,-3.048410797E0,9.204778223E0
1.063857175E1,8.141569519E-1,8.513845367E0,-4.483177185E0,9.656463750E0
1.064850275E1,1.776505737E0,8.987460480E0,-5.142106934E0,1.050579279E1
1.065843275E1,1.924098816E0,9.361532593E0,-4.480333099E0,1.055527515E1
1.066836375E1,2.073488159E0,9.449998627E0,-3.302432556E0,1.022290996E1
1.067829475E1,2.097588043E0,9.472451935E0,-2.270328827E0,9.964015969E0
1.068822475E1,2.243235168E0,9.353150024E0,-1.336121521E0,9.710753839E0
1.069815575E1,1.900597687E0,9.064699860E0,-8.187973022E-1,9.297929024E0
1.070808675E1,1.261875916E0,8.994645538E0,-1.024768982E0,9.140357250E0
1.071801775E1,4.013154602E-1,8.945697327E0,-1.564995575E0,9.090421657E0
1.072794775E1,-3.823049927E-1,8.870104523E0,-2.070943451E0,9.116672536E0
1.073787875E1,-9.285191345E-1,8.661288757E0,-2.146386566E0,8.971457296E0
1.074780975E1,-1.039887543E0,8.020022278E0,-1.841171265E0,8.294096398E0
1.075773975E1,-7.478448486E-1,8.487799530E0,-1.253493347E0,8.612389816E0
1.076767075E1,-3.659889221E-1,9.176667023E0,-7.982899475E-1,9.218591670E0
1.077760175E1,4.376898193E-1,9.494755554E0,-6.867718506E-1,9.529617568E0
1.078753275E1,1.578317871E0,1.015428406E1,-7.310797119E-1,1.030218664E1
1.079746275E1,2.949316864E0,1.085048630E1,-8.987310791E-1,1.128003725E1
1.080739375E1,3.955524445E0,1.148561554E1,-1.469943237E0,1.223626867E1
1.081732475E1,4.158652039E0,1.167212769E1,-1.997895355E0,1.255087795E1
1.082725475E1,2.407892761E0,1.095916031E1,-1.539249115E0,1.132565363E1
1.083718575E1,1.179397430E0,1.091904373E1,-6.831793213E-1,1.100378245E1
1.084711675E1,7.279362488E-1,1.145238464E1,-5.327421570E-1,1.148785530E1
1.085704775E1,8.134085083E-1,1.178813644E1,-8.551716614E-1,1.184707191E1
1.086697775E1,9.696835327E-1,1.168904251E1,-7.783813477E-1,1.175499377E1
1.087690875E1,1.416354675E0,1.172556656E1,3.698808289E-1,1.181658934E1
1.088683975E1,2.067650299E0,1.178918427E1,1.403331757E0,1.205111544E1
1.089676975E1,2.535876617E0,1.184501816E1,1.593586121E0,1.221780022E1
1.090670075E1,2.983595581E0,1.190189987E1,7.445516968E-1,1.229273852E1
1.091663175E1,3.161874847E0,1.231908234E1,-3.219804382E-1,1.272245706E1
1.092656275E1,3.070265350E0,1.318578003E1,-9.404942322E-1,1.357114047E1
1.093649275E1,2.660567322E0,1.419378387E1,-1.133742371E0,1.448542339E1
1.094642375E1,1.892215118E0,1.443343552E1,-8.861572266E-1,1.458388883E1
1.095635475E1,7.334747314E-1,1.407508072E1,-6.732998657E-1,1.411025213E1
1.096628475E1,-4.041595459E-1,1.283296371E1,-9.479786682E-1,1.287427537E1
1.097621575E1,-1.023122406E0,1.115465378E1,-1.852697296E0,1.135365878E1
1.098614675E1,-1.916165314E0,1.025233017E1,-2.727927246E0,1.078070269E1
1.099607775E1,-2.150278473E0,9.121132507E0,-3.228636017E0,9.911752936E0
1.100600775E1,-1.886077881E0,9.018296356E0,-3.777095490E0,9.957580493E0
1.101593875E1,-1.844015350E0,1.015847534E1,-3.384461975E0,1.086506313E1
1.102586975E1,-2.210603027E0,1.238060440E1,-2.412533112E0,1.280571931E1
1.103580038E1,-2.472109222E0,1.509371246E1,-1.431922302E0,1.536170177E1
1.104573137E1,-2.990331573E0,1.672951080E1,-1.187031555E0,1.703606934E1
1.105566238E1,-4.094136200E0,1.705403595E1,-9.482780457E-1,1.756420578E1
1.106559337E1,-5.025050354E0,1.678220123E1,-1.030906219E0,1.754868020E1
1.107552337E1,-4.765639801E0,1.568692886E1,-1.538800049E0,1.646690516E1
1.108545437E1,-3.756139069E0,1.392524231E1,-2.687810669E0,1.467123990E1
1.109538537E1,-2.420017548E0,1.230037125E1,-4.688699799E0,1.338430138E1
1.110531537E1,-4.014651489E-1,1.087323898E1,-5.053042145E0,1.199673852E1
1.111524637E1,-1.927990723E-1,1.064451462E1,-4.292024689E0,1.147886488E1
1.112517737E1,8.996292114E-2,1.077863571E1,-4.013753357E0,1.150205621E1
1.113510837E1,6.734495544E-1,1.019574783E1,-2.751128998E0,1.058184856E1
1.114503837E1,1.330133972E0,8.929081879E0,-1.509011993E0,9.152861671E0
1.115496937E1,2.351909180E0,7.425758057E0,-1.058149567E0,7.860854916E0
1.116490037E1,2.252216492E0,6.374943237E0,-4.670288086E-2,6.761254437E0
1.117483037E1,1.731000366E0,5.599555664E0,1.267414398E0,5.996476062E0
1.118476137E1,1.666484528E0,4.849465485E0,1.924847260E0,5.477182044E0
1.119469237E1,1.394500122E0,4.031865692E0,1.747017059E0,4.610058585E0
1.120462338E1,1.149759064E0,3.648512878E0,8.559201050E-1,3.919973387E0
1.121455338E1,6.313870239E-1,3.490142212E0,-1.847158813E-1,3.551599948E0
1.122448437E1,-3.772155762E-2,3.348836060E0,-2.697390747E-1,3.359893605E0
1.123441538E1,-1.067130890E0,3.370391235E0,-3.472778320E-2,3.535464812E0
1.124434537E1,-1.979184265E0,3.190615082E0,8.756790161E-2,3.755644165E0
1.125427637E1,-2.551893311E0,2.795885925E0,8.622070312E-2,3.786366541E0
1.126420737E1,-2.778821411E0,2.283351746E0,3.107537842E-1,3.610001599E0
1.127413837E1,-2.774330750E0,2.040406952E0,8.192463684E-1,3.539962747E0
1.128406837E1,-2.301913147E0,2.055375824E0,1.277443542E0,3.339945496E0
1.129399937E1,-1.786834259E0,2.279759216E0,1.591041412E0,3.304767999E0
1.130393037E1,-1.484912109E0,2.465522919E0,1.843117218E0,3.417725606E0
1.131386037E1,-1.307830353E0,2.389930115E0,2.152523804E0,3.472109576E0
1.132379137E1,-1.372046814E0,2.734663239E0,2.533032532E0,3.972045983E0
1.133372237E1,-1.240171051E0,3.788920898E0,2.918181610E0,4.940620378E0
1.134365337E1,-8.198451233E-1,4.971162415E0,3.240461426E0,5.990425029E0
1.135358337E1,-5.813909912E-1,6.942862244E0,3.643872528E0,7.862516049E0
1.136351437E1,-4.881349182E-1,1.011252090E1,4.009412384E0,1.088929485E1
1.137344537E1,-6.264472961E-1,1.495031067E1,4.292324066E0,1.556689665E1
1.138337537E1,-1.990859985E-1,2.198253708E1,4.943919067E0,2.253250779E1
1.139330638E1,4.716691589E-1,2.835912689E1,7.026687927E0,2.922048756E1
1.140323737E1,-9.216334534E-1,2.761682053E1,8.823401642E0,2.900673371E1
1.141316837E1,-1.398092651E-1,2.089415039E1,9.347910919E0,2.289035836E1
1.142309837E1,1.181493073E0,1.469688766E1,9.239236908E0,1.739994056E1
1.143302937E1,5.927673340E-2,1.018092865E1,8.695717163E0,1.338918664E1
1.144296037E1,-1.701960754E0,7.110064545E0,7.806566162E0,1.069542722E1
1.145289037E1,-2.977757721E0,5.243595886E0,6.784940643E0,9.077321102E0
1.146282137E1,-2.857258301E0,2.576591949E0,5.298681335E0,6.548188678E0
1.147275237E1,-2.965782623E0,1.714384918E0,4.851411438E0,5.938954046E0
1.148268337E1,-1.868264923E0,3.532953186E0,4.412374420E0,5.953252897E0
1.149261337E1,-8.744815063E-1,6.815926208E0,4.203708344E0,8.055602511E0
1.150254437E1,-4.713697815E-1,1.126317810E1,2.976709900E0,1.165942418E1
1.151247537E1,3.849993896E-1,1.604243958E1,1.635948029E0,1.613023304E1
1.152240537E1,1.209634552E0,2.028686325E1,2.644999695E-1,2.032461553E1
1.153233637E1,1.529369659E0,2.257635223E1,-2.249671783E0,2.273964984E1
1.154226737E1,1.745969238E0,2.191442871E1,-4.245321808E0,2.239002795E1
1.155219837E1,1.199455719E0,1.636382126E1,-3.361409912E0,1.674850491E1
1.156212837E1,-1.614392853E0,6.983128510E0,-3.964356079E0,8.190632893E0
1.157205938E1,-4.370760956E0,5.569917297E-1,-4.727469177E0,6.462411001E0
1.158199037E1,-6.627019043E0,-1.510209503E0,-4.200115814E0,7.989936608E0
1.159192037E1,-6.318510590E0,-4.073030090E-1,-2.969375153E0,6.993329723E0
1.160185137E1,-2.530787201E0,2.290686493E0,-1.661993866E0,3.796623773E0
1.161178237E1,1.958826599E0,6.079757080E0,-1.197659454E0,6.498833431E0
1.162171337E1,4.721481628E0,9.507928162E0,-1.348096619E0,1.070095562E1
1.163164337E1,5.413342896E0,1.076666061E1,-2.546354828E0,1.231702825E1
1.164157437E1,4.126468964E0,1.151360733E1,-3.810476074E0,1.281056704E1
1.165150537E1,1.914967804E0,1.220022949E1,-4.216132507E0,1.304946262E1
1.166143537E1,-3.189866638E-1,1.168320465E1,-3.667822723E0,1.224956926E1
1.167136637E1,-1.500479736E0,1.038360718E1,-2.641257477E0,1.081882519E1
1.168129737E1,-1.434317322E0,9.060059509E0,-1.406924286E0,9.280160583E0
1.169122837E1,-8.424481201E-1,8.004754028E0,-6.721023560E-2,8.049243636E0
1.170115837E1,-3.727249146E-2,7.266489258E0,-3.772155762E-2,7.266682757E0
1.171108937E1,2.808160400E-1,7.579787750E0,-5.936654663E-1,7.608184979E0
1.172102038E1,3.932322693E-1,8.240813141E0,-1.233584747E0,8.341904109E0
1.173095038E1,8.192463684E-1,8.563841400E0,-2.020947418E0,8.837124680E0
1.174088137E1,7.875123596E-1,9.586814117E0,-2.679877167E0,9.985435507E0
1.175081238E1,6.505471802E-1,1.035202286E1,-3.373085632E0,1.090712132E1
1.176074337E1,1.422342224E0,1.066172882E1,-3.255430298E0,1.123803120E1
1.177067337E1,1.753453674E0,1.002330643E1,-2.543510742E0,1.048859945E1
1.178060437E1,1.378034363E0,9.927056580E0,-2.122286682E0,1.024448787E1
1.179053537E1,1.011147308E0,1.001237915E1,-1.543290710E0,1.018095778E1
1.180046537E1,3.335064697E-1,9.349108429E0,-9.608518982E-1,9.404269847E0
1.181039637E1,4.483177185E-1,9.038204956E0,-7.307803345E-1,9.078776212E0
1.182032737E1,7.991880798E-1,9.521250458E0,-6.839277649E-1,9.579178934E0
1.183025837E1,1.476080475E0,9.582473145E0,-8.665480042E-1,9.734141492E0
1.184018837E1,2.004481659E0,9.694889374E0,-1.353335724E0,9.992014025E0
1.185011937E1,2.146236877E0,9.994117126E0,-1.979483643E0,1.041187137E1
1.186005037E1,2.275268555E0,1.049542465E1,-2.289339294E0,1.098052185E1
1.186998037E1,1.771715698E0,9.531878357E0,-2.126178589E0,9.925538621E0
1.187991137E1,1.359173584E0,9.044042816E0,-1.836231537E0,9.328119293E0
1.188984237E1,5.996530151E-1,9.444011078E0,-1.398990784E0,9.565882301E0
1.189977338E1,1.483415222E-1,9.826316071E0,-9.095086670E-1,9.869432544E0
1.190970338E1,-2.055226135E-1,9.703421631E0,-7.409591675E-1,9.733840526E0
1.191963437E1,-3.574566650E-1,9.734407196E0,-7.899073792E-1,9.772942873E0
1.192956538E1,-1.163081360E-1,9.583371277E0,-8.005352783E-1,9.617452331E0
1.193949538E1,1.564247131E-1,9.370813293E0,-3.011737061E-1,9.376956653E0
1.194942637E1,1.158740387E0,9.822424164E0,3.198847961E-1,9.895707252E0
1.195935737E1,2.952460327E0,9.109756165E0,3.348536682E-1,9.582108658E0
1.196928837E1,4.539160767E0,9.161698151E0,-7.828720093E-1,1.025444206E1
1.197921837E1,5.439538422E0,1.022598495E1,-2.170486450E0,1.178432679E1
1.198914937E1,4.755161591E0,1.141900406E1,-2.220033417E0,1.256717008E1
1.199908037E1,2.864892426E0,1.207374252E1,-1.183738403E0,1.246531603E1
1.200901037E1,9.068142700E-1,1.215442474E1,-3.981719971E-1,1.219470762E1
1.201894137E1,-2.368075562E-1,1.167736679E1,-3.803590393E-1,1.168595935E1
1.202887237E1,3.508703613E-1,1.187779999E1,-1.320553894E0,1.195613253E1
1.203880312E1,1.888023834E0,1.366493362E1,-2.657124481E0,1.404832216E1
1.204873312E1,2.863395538E0,1.581401459E1,-2.777174835E0,1.630934675E1
1.205866412E1,2.490371246E0,1.593586121E1,-1.995949402E0,1.625230554E1
1.206859512E1,1.769170990E0,1.471769440E1,-2.138902130E0,1.497716250E1
1.207852512E1,1.411115570E0,1.405217834E1,-3.107537842E0,1.446069690E1
1.208845612E1,7.229965210E-1,1.372765320E1,-3.593726807E0,1.420866140E1
1.209838712E1,-4.999603271E-1,1.254137009E1,-3.348836060E0,1.299040519E1
1.210831812E1,-1.665586395E0,1.172317154E1,-3.442990265E0,1.233130613E1
1.211824812E1,-3.723506927E0,1.037732025E1,-3.003204803E0,1.142683327E1
1.212817912E1,-5.624104614E0,9.251661072E0,-2.739303589E0,1.116814978E1
1.213811013E1,-6.389912109E0,9.569001160E0,-2.749781799E0,1.183038714E1
1.214804013E1,-6.207890625E0,1.119013000E1,-2.379302216E0,1.301606679E1
1.215797112E1,-5.769003296E0,1.288475601E1,-1.381776581E0,1.418476799E1
1.216790212E1,-4.735402679E0,1.419138885E1,-7.304809570E-1,1.497842310E1
1.217783312E1,-4.284989319E0,1.432101929E1,-1.317709808E0,1.500630154E1
1.218776312E1,-4.023932190E0,1.375339966E1,-1.494043121E0,1.440764371E1
1.219769412E1,-3.226091309E0,1.322245377E1,-1.688339081E0,1.371464318E1
1.220762512E1,-2.147284698E0,1.169443130E1,-2.585872650E0,1.216787954E1
1.221755512E1,-1.103355560E0,1.060275146E1,-3.310515747E0,1.116222409E1
1.222748612E1,-2.908451843E-1,9.938881989E0,-3.824696503E0,1.065336892E1
1.223741712E1,1.287322998E-2,1.033121613E1,-3.722758484E0,1.098149002E1
1.224734812E1,2.083666992E-1,1.039962387E1,-3.171454926E0,1.087445262E1
1.225727812E1,8.360115051E-1,9.832902374E0,-2.581831055E0,1.020052626E1
1.226720912E1,1.164428558E0,8.993897095E0,-1.939666443E0,9.274070559E0
1.227714012E1,1.271905060E0,7.721692657E0,-1.307980042E0,7.934298442E0
1.228707012E1,1.531764679E0,6.446344757E0,-3.746708679E-1,6.636417860E0
1.229700112E1,1.228046265E0,5.267695770E0,1.241518250E0,5.549602141E0
1.230693212E1,1.286125488E0,4.618645477E0,1.813628540E0,5.125939260E0
1.231686313E1,1.771266632E0,4.332590332E0,1.183439026E0,4.827965658E0
1.232679313E1,2.143093414E0,4.196523285E0,3.026705933E-1,4.721786373E0
1.233672412E1,1.992955627E0,4.438120880E0,-6.002517700E-1,4.901947701E0
1.234665512E1,1.717678070E0,4.848567352E0,-8.452922058E-1,5.212824785E0
1.235658512E1,1.036145325E0,5.329068146E0,-8.017327881E-1,5.487744518E0
1.236651612E1,-4.086502075E-2,5.849535828E0,-5.225633240E-1,5.872972993E0
1.237644712E1,-1.146166534E0,6.163133698E0,-3.742218018E-2,6.268916582E0
1.238637812E1,-1.977238312E0,6.516997833E0,5.029541016E-1,6.828886800E0
1.239630812E1,-1.965113525E0,6.459966431E0,8.285270691E-1,6.802888692E0
1.240623912E1,-1.664239197E0,5.858367462E0,1.124461670E0,6.193107094E0
1.241617012E1,-1.338217163E0,5.140909424E0,1.729653168E0,5.586723097E0
1.242610012E1,-8.068222046E-1,4.629572754E0,2.345622253E0,5.252223311E0
1.243603112E1,-6.734495544E-1,3.991749115E0,3.009342041E0,5.044178310E0
1.244596212E1,-7.231462097E-1,3.683989105E0,3.024759979E0,4.821191668E0
1.245589312E1,-9.991722107E-1,3.777095490E0,2.985691223E0,4.917229659E0
1.246582312E1,-1.172212372E0,4.696633301E0,3.197650452E0,5.801501066E0
1.247575413E1,-6.619235229E-1,5.897585907E0,3.410657501E0,6.844870114E0
1.248568512E1,-5.445675659E-1,7.820936279E0,2.886896667E0,8.354505999E0
1.249561512E1,-9.821076965E-1,1.079076050E1,1.780547333E0,1.098068288E1
1.250554613E1,-2.948119354E0,1.604528366E1,1.231788483E0,1.636031291E1
1.251547712E1,-4.467160492E0,2.019285873E1,3.573369141E0,2.098752090E1
1.252540812E1,-5.212310944E0,2.120071289E1,6.903943176E0,2.289766023E1
1.253533812E1,-5.258864136E0,1.841171265E1,9.627080383E0,2.143192691E1
1.254526912E1,-3.393592987E0,1.576671295E1,9.825567627E0,1.888511292E1
1.255520012E1,-2.423310699E0,1.327379700E1,7.553741913E0,1.546367157E1
1.256513012E1,-2.096839600E0,1.102756805E1,5.259762268E0,1.239633384E1
1.257506112E1,-1.805994415E0,8.721763000E0,4.046684875E0,9.782966020E0
1.258499212E1,-8.731343079E-1,5.877228241E0,3.830384674E0,7.069372113E0
1.259492212E1,-9.924362183E-2,5.618715820E0,4.452790375E0,7.169878582E0
1.260485312E1,1.150806885E0,8.169710999E0,4.889881439E0,9.590593036E0
1.261478412E1,2.193987579E0,1.244796432E1,5.051545258E0,1.361188844E1
1.262471512E1,2.982398071E0,1.680764832E1,4.237088928E0,1.758819669E1
1.263464512E1,3.770060120E0,1.921673859E1,1.290466461E0,1.962553691E1
1.264457612E1,4.052822113E0,1.975786331E1,-3.670217743E0,2.050046409E1
1.265450713E1,2.977757721E0,1.886107819E1,-7.109316101E0,2.037522237E1
1.266443713E1,2.453098755E0,1.432895279E1,-7.159761200E0,1.620489932E1
1.267436812E1,3.159928894E-1,5.653293915E0,-5.659281464E0,8.005438794E0
1.268429913E1,-5.740562439E0,-2.273771667E-1,-3.160677338E0,6.557105972E0
1.269423012E1,-1.262250137E1,-2.077978821E0,-7.920030212E-1,1.281689532E1
1.270416012E1,-1.486828125E1,-1.976639557E0,1.183289337E0,1.504569922E1
1.271409112E1,-9.662257233E0,3.097059631E-1,1.662442932E0,9.809120711E0
1.272402212E1,-1.977388000E0,4.129612427E0,7.150630188E-1,4.634120976E0
1.273395212E1,5.040917358E0,8.278983765E0,-1.341061249E0,9.785237108E0
1.274388312E1,1.092069031E1,1.213736023E1,-4.249513092E0,1.687113961E1
1.275381412E1,1.327843735E1,1.492082199E1,-5.528453522E0,2.072466226E1
1.276374512E1,1.020353165E1,1.539368866E1,-5.440586243E0,1.925299164E1
1.277367512E1,4.671485596E0,1.444930252E1,-6.093678131E0,1.636270253E1
1.278360612E1,3.484753418E-1,1.231848358E1,-6.061045990E0,1.373327169E1
1.279353712E1,-2.005230103E0,9.983788605E0,-4.053121490E0,1.096014491E1
1.280346712E1,-2.180365906E0,7.991431732E0,-9.647438049E-1,8.339526798E0
1.281339812E1,-1.577270050E0,6.794221344E0,9.755213928E-1,7.042788260E0
1.282332912E1,-7.954458618E-1,6.566544800E0,7.207511902E-1,6.653700249E0
1.283326013E1,-5.044509888E-2,7.194488983E0,-8.734336853E-1,7.247489416E0
1.284319013E1,-1.576222229E-1,8.317004700E0,-1.993554382E0,8.554044132E0
1.285312112E1,-1.068927155E0,9.688901825E0,-2.561922455E0,1.007873358E1
1.286305213E1,-2.027533722E0,1.063268921E1,-2.854114838E0,1.119423710E1
1.287298213E1,-2.365081787E0,1.086695206E1,-2.543959808E0,1.140859283E1
1.288291312E1,-1.585502930E0,1.044767395E1,-2.639760590E0,1.089201756E1
1.289284412E1,-7.852670288E-1,9.608818359E0,-1.703757019E0,9.790241190E0
1.290277512E1,-1.028361511E-1,8.749006348E0,-1.201701050E0,8.831748001E0
1.291270512E1,6.328839111E-1,8.352929993E0,-2.064057770E0,8.627416530E0
1.292263612E1,1.469943237E0,8.230035553E0,-3.041525116E0,8.896352812E0
1.293256712E1,2.238894196E0,8.418942719E0,-3.398532715E0,9.351003600E0
1.294249712E1,2.730921021E0,8.963360596E0,-3.305426331E0,9.936075987E0
1.295242812E1,3.126697998E0,9.470955048E0,-2.829116821E0,1.036721428E1
1.296235912E1,3.173400879E0,9.756112061E0,-2.249222717E0,1.050291381E1
1.297229012E1,2.839595032E0,9.829609222E0,-1.624272308E0,1.035967074E1
1.298222012E1,2.258054352E0,9.900711365E0,-9.915380859E-1,1.020323688E1
1.299215112E1,1.875150604E0,9.928254089E0,-6.080355835E-1,1.012206137E1
1.300208212E1,1.514101410E0,9.704170074E0,-4.540058899E-1,9.832066988E0
1.301201212E1,1.103355560E0,9.731413422E0,-4.992118835E-1,9.806478123E0
1.302194313E1,9.723779297E-1,9.669741669E0,-9.599537659E-1,9.765804320E0
1.303187412E1,3.432362366E-1,9.085207214E0,-1.262474670E0,9.178923877E0
1.304180579E1,-9.774673462E-2,9.472002869E0,-7.228468323E-1,9.500047385E0
1.305173579E1,-3.779640198E-1,9.918524323E0,2.671943665E-1,9.929318928E0
1.306166679E1,2.993774414E-2,1.051593201E1,1.237925720E0,1.058858736E1
1.307159779E1,1.251397705E0,1.073567505E1,1.486408997E0,1.091009288E1
1.308152779E1,2.632725220E0,1.008722351E1,5.129832458E-1,1.043774267E1
1.309145879E1,4.052522736E0,9.591155090E0,-8.976832581E-1,1.045079096E1
1.310138979E1,5.093308411E0,1.005728577E1,-2.131866760E0,1.147325775E1
1.311132079E1,4.702022095E0,1.067520081E1,-2.671644287E0,1.196689631E1
1.312125079E1,3.237916718E0,1.141256744E1,-1.612297211E0,1.197206342E1
1.313118179E1,1.547781372E0,1.178589111E1,-2.644999695E-1,1.189003014E1
1.314111279E1,4.790039063E-2,1.156465118E1,3.727249146E-1,1.157075517E1
1.315104279E1,-1.116977234E0,1.100676132E1,6.744973755E-1,1.108383416E1
1.316097379E1,-1.041833496E0,1.059706329E1,6.370751953E-1,1.066719421E1
1.317090479E1,2.634521484E-1,1.076456497E1,1.559756470E-1,1.076891798E1
1.318083579E1,1.723216553E0,1.181328415E1,-7.813751221E-1,1.196384991E1
1.319076579E1,2.821033630E0,1.331032104E1,-1.651066589E0,1.370579797E1
1.320069679E1,3.065475311E0,1.406535095E1,-1.801354065E0,1.450779490E1
1.321062779E1,2.098935242E0,1.372076752E1,-1.106349335E0,1.392440301E1
1.322055779E1,6.083349609E-1,1.341674973E1,-1.229842529E0,1.348672522E1
1.323048879E1,-4.950205994E-1,1.282637741E1,-2.500849457E0,1.307727995E1
1.324041979E1,-1.999092865E0,1.239572296E1,-3.349734192E0,1.299503902E1
1.325035079E1,-4.398004303E0,1.134116592E1,-2.702180786E0,1.246058856E1
1.326028079E1,-5.848338318E0,1.062340851E1,-2.206860809E0,1.232599302E1
1.327021179E1,-6.312373352E0,1.056488022E1,-2.952759705E0,1.265628465E1
1.328014279E1,-5.682483215E0,1.077219910E1,-3.633993073E0,1.270971261E1
1.329007279E1,-4.579876099E0,1.248598526E1,-3.850293274E0,1.384557154E1
1.330000379E1,-3.622167664E0,1.449914886E1,-3.229534149E0,1.528971246E1
1.330993479E1,-3.419189758E0,1.488384888E1,-1.822759552E0,1.537993070E1
1.331986479E1,-2.983445892E0,1.481065109E1,-6.126759338E-1,1.512057231E1
1.332979579E1,-2.325563965E0,1.471440125E1,1.167572021E-2,1.489704629E1
1.333972679E1,-2.364033966E0,1.402358780E1,-4.093986511E-1,1.422734264E1
1.334965779E1,-2.403102722E0,1.339564362E1,-1.615889740E0,1.370508191E1
1.335958779E1,-1.603166199E0,1.177122162E1,-3.554508362E0,1.240025524E1
1.336951879E1,-6.286926270E-1,1.060035645E1,-4.475243683E0,1.152348112E1
1.337944979E1,-1.975891113E-1,1.038420593E1,-3.839066620E0,1.107290417E1
1.338937979E1,-3.799099731E-1,9.873018951E0,-2.618654480E0,1.022145714E1
1.339931079E1,-5.230123901E-1,8.915310516E0,-1.482666779E0,9.052878235E0
1.340924179E1,-5.634283447E-1,7.804171143E0,-6.321354675E-1,7.849976686E0
1.341917279E1,-9.298663330E-1,6.836134186E0,-2.757266235E-1,6.904593194E0
1.342910279E1,-9.837542725E-1,6.162085876E0,-4.469705200E-1,6.256105615E0
1.343903379E1,-6.462062073E-1,5.602998505E0,-3.490740967E-1,5.650931554E0
1.344896479E1,-8.625064087E-1,5.351371765E0,-3.900888062E-1,5.434451799E0
1.345889479E1,-1.100511475E0,5.120551758E0,-4.378395081E-1,5.255747258E0
1.346882579E1,-1.282832336E0,4.640799408E0,-3.911366272E-1,4.830700344E0
1.347875679E1,-1.390458527E0,3.882027283E0,-4.655319214E-1,4.149726582E0
1.348868779E1,-1.491797791E0,2.898871765E0,-4.502636719E-1,3.291148057E0
1.349861779E1,-1.898052979E0,2.040856018E0,-3.450325012E-1,2.808335062E0
1.350854879E1,-1.988315277E0,1.445394287E0,-1.206491089E-1,2.461121389E0
1.351847979E1,-1.484612732E0,1.216819611E0,-2.275268555E-1,1.933001138E0
1.352840979E1,-1.176403656E0,1.102307739E0,-7.237449646E-1,1.767148745E0
1.353834079E1,-1.331481171E0,1.389261017E0,-8.467890930E-1,2.102365346E0
1.354827179E1,-1.343007202E0,2.496807861E0,-5.161267090E-1,2.881684338E0
1.355820279E1,-1.648072815E0,4.122427368E0,-3.629951477E-1,4.454471561E0
1.356813279E1,-2.365979919E0,5.753435669E0,-4.713697815E-1,6.238755681E0
1.357806379E1,-2.478695526E0,8.075706482E0,-2.677931213E-1,8.451785601E0
1.358799479E1,-2.696642303E0,1.099269058E1,2.778222656E-1,1.132202770E1
1.359792479E1,-3.430416412E0,1.379695908E1,1.978435822E0,1.435402539E1
1.360785579E1,-2.546953583E0,1.662577652E1,4.619842987E0,1.744265939E1
1.361778679E1,2.216889954E-1,1.669313644E1,7.764503632E0,1.841188385E1
1.362771679E1,2.539319458E0,1.819361618E1,1.126377686E1,2.154828258E1
1.363764779E1,5.331912231E0,2.850522308E1,9.683513031E0,3.057363988E1
1.364757879E1,8.826844482E0,4.316079666E1,-4.025129700E0,4.423764484E1
1.365750979E1,2.311942291E0,3.685620712E1,-2.670282120E1,4.557154529E1
1.366743979E1,-4.851860504E0,1.424587555E1,-3.225836838E1,3.559617748E1
1.367737079E1,-6.946604462E0,9.994715881E-1,-1.859044098E1,1.987105314E1
1.368730179E1,-1.092233688E1,-5.481151886E0,-4.324058075E0,1.296294516E1
1.369723179E1,-1.267923340E1,-8.108338623E0,1.076441528E1,1.850353348E1
1.370716279E1,-6.128106537E0,-5.138664093E0,1.791833862E1,1.962209004E1
1.371709379E1,1.407972107E0,2.193538513E0,5.546116791E0,6.128083560E0
1.372702479E1,4.986580353E0,1.033211426E1,-6.562503204E0,1.321684595E1
1.373695479E1,7.702831879E0,1.754486526E1,-1.135194351E1,2.227156343E1
1.374688579E1,8.025860138E0,2.230047592E1,-1.118040024E1,2.620547666E1
1.375681679E1,6.027066650E0,2.300461166E1,-8.942853241E0,2.540693437E1
1.376674679E1,4.214186554E0,1.908336594E1,-5.371280365E0,2.026782861E1
1.377667779E1,3.363056488E0,1.336660400E1,-2.232607269E0,1.396283591E1
1.378660879E1,2.637964325E0,8.781937866E0,-8.210426331E-1,9.206269574E0
1.379653979E1,1.733096008E0,5.967340851E0,-4.939727783E-3,6.213920100E0
1.380646979E1,7.039860535E-1,4.536466370E0,9.987231445E-1,4.698145528E0
1.381640079E1,-1.149609375E-1,4.548291779E0,1.237027588E0,4.714913719E0
1.382633179E1,-2.097138977E-1,5.521867218E0,5.828878784E-1,5.556505716E0
1.383626179E1,3.248245239E-2,6.774612122E0,-3.924838257E-1,6.786049518E0
1.384619279E1,1.517843628E-1,8.013435974E0,-1.211580505E0,8.105931281E0
1.385612379E1,1.880090332E-1,9.316027222E0,-1.629661102E0,9.459360755E0
1.386605479E1,-2.745291138E-1,1.069091812E1,-1.735790405E0,1.083439268E1
1.387598479E1,-9.991722107E-1,1.171239395E1,-1.468446350E0,1.184630119E1
1.388591579E1,-1.593286743E0,1.240425522E1,-1.267863464E0,1.257026602E1
1.389584679E1,-2.075134735E0,1.254705826E1,-1.820364532E0,1.284712350E1
1.390577679E1,-2.080972595E0,1.165102158E1,-2.542462921E0,1.210540658E1
1.391570779E1,-1.565893707E0,1.053389465E1,-2.372865601E0,1.091079515E1
1.392563879E1,-7.848179626E-1,1.003992188E1,-1.346599731E0,1.016018215E1
1.393556879E1,5.215155029E-1,1.018766464E1,-8.171507263E-1,1.023368089E1
1.394549979E1,2.660118256E0,1.050111282E1,-1.023870850E0,1.088108042E1
1.395543079E1,4.897665253E0,1.135927826E1,-1.137783966E0,1.242235404E1
1.396536179E1,6.597530365E0,1.258822266E1,-1.235830078E0,1.426597464E1
1.397529179E1,7.656428375E0,1.296888107E1,-1.150507507E0,1.510418615E1
1.398522279E1,7.588020630E0,1.257460098E1,-3.745211792E-1,1.469145715E1
1.399515379E1,6.265371094E0,1.231414261E1,-4.174818420E-1,1.382270864E1
1.400508379E1,4.574337616E0,1.215188004E1,-1.073268127E-1,1.298477077E1
1.401501479E1,2.787503357E0,1.177271851E1,9.821076965E-1,1.213802338E1
1.402494579E1,1.550026703E0,1.153606064E1,2.110161896E0,1.182945734E1
1.403487679E1,1.163530426E0,1.122440872E1,3.418740692E0,1.179105348E1
1.404480675E1,1.911225586E0,1.087353836E1,4.691992950E0,1.199589170E1
1.405473775E1,3.345991974E0,1.007943970E1,5.327122192E0,1.188145605E1
1.406466875E1,4.271068268E0,8.759185181E0,5.165158997E0,1.102924370E1
1.407459875E1,3.698059845E0,7.717201996E0,4.693190460E0,9.759963625E0
1.408452975E1,2.591560822E0,6.975793762E0,3.790118408E0,8.351220489E0
1.409446075E1,1.731599121E0,6.092480621E0,2.707569580E0,6.888228268E0
1.410439175E1,9.490264893E-1,5.584586792E0,2.351310425E0,6.133263538E0
1.411432175E1,5.975573730E-1,5.723497925E0,2.103425903E0,6.126981626E0
1.412425275E1,6.348298645E-1,5.837710419E0,2.158211975E0,6.256177013E0
1.413418375E1,5.040019226E-1,6.045628052E0,2.561323700E0,6.585135957E0
1.414411375E1,3.791615295E-1,6.418502655E0,3.077749786E0,7.128357703E0
1.415404475E1,1.037342834E-1,6.915469208E0,3.375929718E0,7.696192346E0
1.416397575E1,-5.766009521E-1,7.072941742E0,3.362757111E0,7.852840819E0
1.417390575E1,-1.434017944E0,7.100634155E0,3.010539551E0,7.844664509E0
1.418383675E1,-2.351011047E0,7.057823181E0,2.702929230E0,7.914919293E0
1.419376775E1,-2.825673981E0,7.285948792E0,2.098336487E0,8.091507848E0
1.420369875E1,-2.405198364E0,7.116052094E0,2.174078979E0,7.819833501E0
1.421362875E1,-2.017654266E0,6.778803406E0,2.594853973E0,7.533682466E0
1.422355975E1,-1.794917450E0,6.703060913E0,3.195405121E0,7.639592145E0
1.423349075E1,-1.568887482E0,6.744375000E0,3.905827789E0,7.950062439E0
1.424342075E1,-1.292113037E0,6.897356873E0,4.858446808E0,8.535080159E0
1.425335175E1,-1.344803467E0,7.079977112E0,5.985453186E0,9.368042598E0
1.426328275E1,-1.607207794E0,7.286846924E0,6.701114960E0,1.002926701E1
1.427321375E1,-2.285896454E0,7.585775299E0,6.734046478E0,1.039791765E1
1.428314375E1,-3.402873688E0,7.927814026E0,5.871540070E0,1.043574470E1
1.429307475E1,-4.902604980E0,8.189320221E0,4.264781342E0,1.045413130E1
1.430300575E1,-6.130052490E0,8.389304352E0,2.215842133E0,1.062393182E1
1.431293575E1,-6.872358856E0,8.605754242E0,6.481521606E-1,1.103215408E1
1.432286675E1,-6.942862244E0,8.635841675E0,3.809577942E-1,1.108721004E1
1.433279775E1,-6.496640167E0,8.433163147E0,1.170266418E0,1.070953303E1
1.434272875E1,-5.619164886E0,7.970325623E0,2.395318909E0,1.004184531E1
1.435265875E1,-5.117258606E0,8.185128937E0,3.756588135E0,1.035831192E1
1.436258975E1,-4.722379761E0,7.654033356E0,2.929258575E0,9.458628496E0
1.437252075E1,-5.038222961E0,6.812483368E0,3.543880463E0,9.184373086E0
1.438245075E1,-5.175487518E0,6.556066589E0,4.489763489E0,9.482913917E0
1.439238175E1,-4.892426147E0,6.191424866E0,4.844825134E0,9.259692547E0
1.440231275E1,-5.352868652E0,6.125711517E0,4.813390503E0,9.452315723E0
1.441224275E1,-6.684798889E0,7.469317474E0,4.554578705E0,1.101006026E1
1.442217375E1,-7.674391022E0,1.142738663E1,4.867877197E0,1.460060516E1
1.443210475E1,-7.714208221E0,1.687440948E1,4.643793182E0,1.912640894E1
1.444203575E1,-7.534132690E0,2.186069046E1,6.015241241E0,2.389217592E1
1.445196575E1,-7.445516968E0,2.541205536E1,9.424102478E0,2.810732979E1
1.446189675E1,-1.517993317E0,2.269535477E1,1.123309067E1,2.536859787E1
1.447182775E1,4.904251556E0,1.249825974E1,6.950795746E0,1.511858926E1
1.448175775E1,2.797382812E0,4.130510559E0,4.882846069E-1,5.012473435E0
1.449168875E1,-1.666634216E0,-5.254074097E-1,-4.232298889E0,4.578872836E0
1.450161975E1,-2.141147461E0,-2.096839600E0,-3.662134552E0,4.732069128E0
1.451155075E1,1.526824951E-2,2.874023438E-1,-1.791624298E0,1.814593853E0
1.452148075E1,2.633473663E0,5.092859344E0,-1.825603638E0,6.017078068E0
1.453141175E1,3.460803223E0,8.849447479E0,-2.586471405E0,9.847827880E0
1.454134275E1,2.521955566E0,1.171209457E1,-3.576512604E0,1.250299411E1
1.455127275E1,1.870210876E0,1.504820709E1,-4.193529510E0,1.573314702E1
1.456120375E1,1.930984497E-1,1.578707062E1,-3.650309143E0,1.620474136E1
1.457113475E1,-1.638792114E0,1.401685181E1,-2.090552673E0,1.426633045E1
1.458106575E1,-2.032922516E0,1.236578522E1,-9.087602234E-1,1.256468317E1
1.459099575E1,-1.915117493E0,1.058898010E1,-4.710704041E-1,1.077107617E1
1.460092675E1,-1.694925385E0,8.959618378E0,4.165837097E-1,9.128037879E0
1.461085775E1,-1.104553070E0,7.736212463E0,1.822609863E0,8.024395770E0
1.462078775E1,1.631607056E-1,6.936725006E0,2.558928680E0,7.395464233E0
1.463071875E1,1.883383484E0,6.466702423E0,1.589095459E0,6.920303314E0
1.464064975E1,3.699257355E0,6.146069183E0,-1.170565796E-1,7.174424968E0
1.465057975E1,5.237009583E0,6.600224762E0,-1.306782532E0,8.526248698E0
1.466051075E1,6.023923187E0,7.757917328E0,-1.901795197E0,1.000448683E1
1.467044175E1,5.316643982E0,8.709488525E0,-1.869911499E0,1.037393188E1
1.468037275E1,3.631747742E0,9.466464386E0,-1.025218048E0,1.019090829E1
1.469030275E1,1.846560059E0,9.888436890E0,-3.143463135E-1,1.006428248E1
1.470023375E1,3.264710999E-1,1.006222549E1,1.634600830E-1,1.006884723E1
1.471016475E1,-7.696994019E-1,1.033645523E1,7.441026306E-1,1.039174830E1
1.472009475E1,-8.466394043E-1,1.023781036E1,9.111552429E-1,1.031308699E1
1.473002575E1,-8.249345398E-1,1.003453308E1,8.452922058E-1,1.010380572E1
1.473995675E1,-3.207829285E-1,9.668095093E0,9.104067993E-1,9.716162048E0
1.474988775E1,-2.210902405E-1,9.307345276E0,8.659492493E-1,9.350156420E0
1.475981775E1,-1.330732727E-1,9.353150024E0,1.417552185E-1,9.355170678E0
1.476974875E1,3.884422302E-1,9.260043640E0,-2.411485291E-1,9.271323972E0
1.477967975E1,7.493417358E-1,9.296867065E0,-8.657995605E-1,9.367115839E0
1.478960975E1,1.278790741E0,9.363777924E0,-1.550326080E0,9.577011732E0
1.479954075E1,1.748214569E0,9.259295197E0,-1.957928467E0,9.624151162E0
1.480947175E1,2.303110657E0,9.059909821E0,-1.914818115E0,9.542159770E0
1.481940275E1,2.286644897E0,9.177116089E0,-1.722917175E0,9.613357800E0
1.482933275E1,2.392774200E0,9.245074768E0,-1.424737244E0,9.655394971E0
1.483926375E1,2.409838715E0,9.270372162E0,-1.243164825E0,9.658808489E0
1.484919475E1,2.435884552E0,9.356443176E0,-1.098266144E0,9.730506204E0
1.485912475E1,2.276166687E0,9.452992401E0,-9.668394470E-1,9.771119621E0
1.486905575E1,2.208657074E0,9.433981934E0,-1.436113586E0,9.794927433E0
1.487898675E1,1.976040802E0,9.326206055E0,-1.537752228E0,9.656476507E0
1.488891675E1,1.181792450E0,9.318422241E0,-1.284179535E0,9.480440050E0
1.489884775E1,4.622387695E-1,9.739496613E0,-8.378077698E-1,9.786387526E0
1.490877875E1,-1.881587219E-1,9.826316071E0,-3.929328918E-1,9.835969067E0
1.491870975E1,-3.439846802E-1,9.792935486E0,-3.044668579E-1,9.803703941E0
1.492863975E1,-1.501377869E-1,1.040950333E1,-4.408332825E-1,1.041991530E1
1.493857075E1,2.137554932E-1,1.078058167E1,-6.935078430E-1,1.080497967E1
1.494850175E1,3.219804382E-1,1.125284958E1,-8.765771484E-1,1.129153145E1
1.495843175E1,3.091072083E-1,1.144145737E1,-8.511300659E-1,1.147723470E1
1.496836275E1,2.543211365E-1,1.177586197E1,-6.436614990E-1,1.179618178E1
1.497829375E1,1.023870850E-1,1.204455322E1,-5.533992004E-1,1.205769448E1
1.498822475E1,-1.151106262E-1,1.180085999E1,-2.079176331E-1,1.180325280E1
1.499815475E1,1.811233521E-2,1.132260452E1,8.113128662E-2,1.132290968E1
1.500808575E1,-3.844006348E-1,1.087204147E1,1.794767761E-1,1.088031532E1
1.501801675E1,-5.192701721E-1,1.056952057E1,1.772314453E-1,1.058375253E1
1.502794675E1,8.086184692E-1,1.152034332E1,-1.941462708E-1,1.155031891E1
1.503787775E1,2.829416199E0,1.288715103E1,-1.513502655E0,1.328062303E1
1.504780862E1,4.792284393E0,1.467623062E1,-3.054398346E0,1.573807753E1
1.505773963E1,5.868246918E0,1.584664673E1,-4.033212891E0,1.737294853E1
1.506766963E1,6.021528168E0,1.586296280E1,-3.024011536E0,1.723476243E1
1.507760062E1,5.295537872E0,1.529234940E1,-1.778152313E0,1.628067864E1
1.508753162E1,3.977229309E0,1.470871307E1,-1.900747375E0,1.535504588E1
1.509746162E1,2.479294281E0,1.346165634E1,-2.890788574E0,1.398998750E1
1.510739262E1,9.346563721E-1,1.177047318E1,-3.817212067E0,1.240921953E1
1.511732362E1,-9.668394470E-1,1.058284286E1,-3.917353821E0,1.132594378E1
1.512725362E1,-3.539988556E0,9.832303619E0,-3.231180725E0,1.093829248E1
1.513718462E1,-4.733307037E0,9.694589996E0,-2.151176605E0,1.100076504E1
1.514711562E1,-4.819078674E0,1.067564987E1,-1.389560394E0,1.179507938E1
1.515704662E1,-3.796255646E0,1.201341797E1,-1.268462219E0,1.266265235E1
1.516697662E1,-2.858455811E0,1.276829819E1,-1.792522430E0,1.320656446E1
1.517690762E1,-2.492466888E0,1.280856445E1,-2.656376038E0,1.331645779E1
1.518683862E1,-2.365231476E0,1.245499969E1,-3.151546326E0,1.306344448E1
1.519676862E1,-2.179018707E0,1.235455856E1,-3.359463959E0,1.298727215E1
1.520669962E1,-2.291135559E0,1.189890610E1,-3.727847900E0,1.267793826E1
1.521663063E1,-1.779050446E0,1.143352386E1,-4.000281372E0,1.224306904E1
1.522656063E1,-1.172362061E0,1.091230774E1,-4.122726746E0,1.172389734E1
1.523649162E1,-4.300556946E-1,1.032971924E1,-3.792962494E0,1.101247529E1
1.524642263E1,-1.796264648E-3,1.041623932E1,-3.273692322E0,1.091856704E1
1.525635362E1,2.010319519E-1,1.090437424E1,-3.026705933E0,1.131842481E1
1.526628362E1,3.324586487E-1,1.072175400E1,-2.145039368E0,1.093927472E1
1.527621462E1,3.778143311E-1,9.801318054E0,-7.737409973E-1,9.839067761E0
1.528614562E1,8.033793640E-1,8.418343964E0,5.354365540E-1,8.473524992E0
1.529607562E1,9.241781616E-1,7.555837555E0,1.221010895E0,7.709452253E0
1.530600662E1,9.987231445E-1,7.091203766E0,1.183588715E0,7.258340100E0
1.531593762E1,7.090754700E-1,6.716981964E0,4.077520752E-1,6.766601546E0
1.532586862E1,8.408015442E-1,6.203100586E0,-7.265890503E-1,6.301851773E0
1.533579862E1,1.516646118E0,5.923332367E0,-1.563798065E0,6.311223825E0
1.534572962E1,1.358574829E0,5.913153534E0,-1.626367950E0,6.281415684E0
1.535566062E1,2.218386841E-1,5.811963959E0,-1.179846497E0,5.934658812E0
1.536559062E1,-4.724176025E-1,5.290448456E0,-6.066883850E-1,5.346035358E0
1.537552162E1,-9.892927551E-1,4.305496674E0,-6.617738342E-1,4.466984035E0
1.538545262E1,-1.382674713E0,3.539988556E0,-6.014492798E-1,3.847733044E0
1.539538363E1,-1.555415497E0,3.221750336E0,-2.236349487E-1,3.584550904E0
1.540531363E1,-1.519490204E0,2.862796783E0,3.433859253E-1,3.259197723E0
1.541524462E1,-1.407073975E0,2.656525726E0,7.626640320E-1,3.101393643E0
1.542517563E1,-1.133442993E0,2.703078918E0,7.887098694E-1,3.035356967E0
1.543510563E1,-1.068927155E0,2.891986084E0,6.732998657E-1,3.155870954E0
1.544503662E1,-1.244961090E0,3.438499603E0,6.376739502E-1,3.712120109E0
1.545496762E1,-1.475631409E0,4.009711761E0,7.547305298E-1,4.338766488E0
1.546489762E1,-1.525028687E0,4.632416840E0,1.064885559E0,4.991891377E0
1.547482862E1,-1.333127747E0,5.464686127E0,1.591490479E0,5.845756238E0
1.548475962E1,-1.559457092E0,6.229894867E0,2.020648041E0,6.732496935E0
1.549469062E1,-1.751507721E0,7.877967682E0,2.374512177E0,8.412399311E0
1.550462062E1,-2.022294617E0,1.071157516E1,2.863395538E0,1.127060566E1
1.551455162E1,-2.499801636E0,1.454166046E1,3.332370300E0,1.512658550E1
1.552448262E1,-2.888992310E0,1.839285187E1,4.170776825E0,1.907979706E1
1.553441262E1,-2.431842957E0,2.057082275E1,6.665638733E0,2.176013209E1
1.554434362E1,-1.944157104E0,2.078832047E1,9.379495239E0,2.288905733E1
1.555427462E1,-5.325924683E-1,1.913141602E1,1.101679047E1,2.208312491E1
1.556420562E1,1.600322113E0,1.606938354E1,1.117366425E1,1.963763965E1
1.557413562E1,2.822979584E0,1.228106140E1,9.650132446E0,1.587194818E1
1.558406663E1,2.245031433E0,8.940458221E0,8.071066132E0,1.225210463E1
1.559399762E1,7.972421265E-1,6.244414673E0,7.540718994E0,9.822970659E0
1.560392762E1,-1.739382935E-1,3.665128326E0,7.256160736E0,8.131130844E0
1.561385863E1,-1.294807434E0,1.939965820E0,6.822213135E0,7.209894988E0
1.562378962E1,-1.286125488E0,1.168470154E0,5.172044678E0,5.456142174E0
1.563371962E1,-6.041436768E-1,1.207688599E0,3.879332886E0,4.107642264E0
1.564365062E1,-9.837542725E-1,4.819378052E0,3.989204407E0,6.333082115E0
1.565358162E1,-1.076411591E0,1.014380585E1,3.728596344E0,1.086084203E1
1.566351262E1,-1.211131439E0,1.677336960E1,3.506607971E0,1.717873879E1
1.567344262E1,-9.463320923E-1,2.340757370E1,2.249222717E0,2.353442274E1
1.568337362E1,-1.146615601E0,2.785452621E1,-1.022673340E0,2.789686754E1
1.569330462E1,-2.614313507E0,2.656211380E1,-3.878734131E0,2.697081947E1
1.570323462E1,-2.670446777E0,1.897214722E1,-3.605103149E0,1.949539496E1
1.571316562E1,-3.142415314E0,8.461454315E0,-2.961441650E0,9.499532609E0
1.572309662E1,-6.275998993E0,5.047503662E-1,-3.597319336E0,7.251457970E0
1.573302762E1,-8.017178192E0,-1.375040588E0,-3.944597168E0,9.040228404E0
1.574295762E1,-6.154451752E0,-5.792953491E-1,-2.952909393E0,6.850732322E0
1.575288862E1,-2.754721527E0,5.164260864E-1,-2.600392456E0,3.823248294E0
1.576281963E1,1.528321838E0,3.758534088E0,-3.206931152E0,5.171726361E0
1.577274963E1,4.733007660E0,7.790998535E0,-3.744014282E0,9.854880143E0
1.578268062E1,6.321204987E0,1.067864365E1,-4.762346649E0,1.329176468E1
1.579261163E1,7.209757233E0,1.272428970E1,-6.151757355E0,1.586607281E1
1.580254262E1,6.503076782E0,1.389350830E1,-6.362519073E0,1.660726436E1
1.581247262E1,4.017345886E0,1.367735779E1,-5.306614838E0,1.521082986E1
1.582240362E1,1.038091278E0,1.230201782E1,-3.788471832E0,1.291393801E1
1.583233462E1,-1.148262177E0,1.038181091E1,-2.378553772E0,1.071251707E1
1.584226462E1,-2.076781311E0,8.819958801E0,-9.695338440E-1,9.112885917E0
1.585219562E1,-1.825304260E0,7.587421875E0,4.245172119E-1,7.815428409E0
1.586212662E1,-1.160087585E0,6.732699280E0,1.027613068E0,6.908764826E0
1.587205662E1,-8.032296753E-1,6.372398529E0,3.809577942E-1,6.434109866E0
1.588198762E1,-8.204438782E-1,6.762786713E0,-3.478765869E-1,6.821248449E0
1.589191862E1,-9.104067993E-1,8.018974457E0,-8.192463684E-1,8.111963788E0
1.590184962E1,-7.426057434E-1,9.183103638E0,-1.372944946E0,9.314817955E0
1.591177962E1,-2.252815247E-1,9.691147156E0,-1.737586670E0,9.848263420E0
1.592171062E1,6.164181519E-1,9.782307587E0,-2.139051819E0,1.003240030E1
1.593164162E1,1.012644196E0,9.788145447E0,-2.470163269E0,1.014568608E1
1.594157162E1,1.697470093E0,9.306297455E0,-3.230881348E0,9.996357903E0
1.595150263E1,2.689008179E0,8.465495911E0,-3.607797546E0,9.587053204E0
1.596143362E1,3.064876556E0,8.200696564E0,-3.169508972E0,9.310782972E0
1.597136462E1,2.877466278E0,9.015601959E0,-3.322191467E0,1.002984781E1
1.598129462E1,2.111958160E0,9.924960938E0,-3.563339996E0,1.075465522E1
1.599122562E1,1.496138763E0,1.071397018E1,-2.916235657E0,1.120410723E1
1.600115662E1,1.349144440E0,1.117216736E1,-1.619781647E0,1.136930986E1
1.601108662E1,1.525777130E0,1.095107712E1,-3.721261597E-1,1.106311727E1
1.602101762E1,1.656605072E0,1.029109955E1,4.827461243E-1,1.043475510E1
1.603094862E1,1.477427673E0,9.451345825E0,6.466552734E-1,9.587955647E0
1.604087775E1,1.084644470E0,8.831933899E0,-1.648072815E-1,8.899813002E0
1.605080875E1,5.047503662E-1,8.910670166E0,-1.029109955E0,8.984090552E0
1.606073975E1,-4.945715332E-1,8.831634521E0,-1.530866547E0,8.976966175E0
1.607067075E1,-9.000782776E-1,9.660011902E0,-1.531614990E0,9.822006685E0
1.608060075E1,-8.878038025E-1,1.079839462E1,-9.113049316E-1,1.087308598E1
1.609053175E1,-5.833369446E-1,1.138532410E1,-2.025288391E-1,1.140205704E1
1.610046275E1,-1.541793823E-2,1.178050232E1,-8.936416626E-2,1.178085135E1
1.611039275E1,5.493576050E-1,1.149354904E1,-6.207591248E-1,1.152340250E1
1.612032375E1,9.053173828E-1,1.045156586E1,-1.096469879E0,1.054784692E1
1.613025475E1,1.543590088E0,9.399703217E0,-1.296603699E0,9.613442259E0
1.614018475E1,2.394271088E0,9.124725037E0,-1.579066315E0,9.564862334E0
1.615011575E1,2.947370911E0,9.727371826E0,-2.095043335E0,1.037776298E1
1.616004675E1,3.103196869E0,1.046683411E1,-2.610720978E0,1.122498602E1
1.616997775E1,2.358495483E0,1.129296616E1,-2.593656464E0,1.182457777E1
1.617990775E1,1.063538361E0,1.167152893E1,-1.692230988E0,1.184142505E1
1.618983875E1,6.706054688E-2,1.130239655E1,-7.593708801E-1,1.132807613E1
1.619976975E1,-8.681945801E-3,1.087638245E1,-2.505789185E-1,1.087927205E1
1.620969975E1,1.259780273E0,1.078088104E1,-5.321434021E-1,1.086727284E1
1.621963075E1,3.303779755E0,1.180250656E1,-1.355581055E0,1.233092542E1
1.622956175E1,5.067711639E0,1.357152786E1,-1.543590088E0,1.456882769E1
1.623949175E1,5.511688385E0,1.454899521E1,-8.677455139E-1,1.558219987E1
1.624942275E1,5.026696930E0,1.407792480E1,-7.461982727E-1,1.496704582E1
1.625935375E1,4.178860016E0,1.311662384E1,-1.228345642E0,1.382090898E1
1.626928475E1,3.285667419E0,1.265917511E1,-1.590143280E0,1.317493380E1
1.627921475E1,2.527643738E0,1.236877899E1,-2.231709137E0,1.282014829E1
1.628914575E1,1.232686615E0,1.170700516E1,-2.959046631E0,1.213793405E1
1.629907675E1,-3.884422302E-1,1.130389343E1,-3.141517181E0,1.173874032E1
1.630900675E1,-2.151026917E0,1.023945694E1,-2.660267944E0,1.079585202E1
1.631893775E1,-2.760110321E0,9.267228699E0,-2.774181061E0,1.005961318E1
1.632886875E1,-3.024909668E0,9.494156799E0,-3.514242096E0,1.056593533E1
1.633879975E1,-2.813549194E0,1.099643280E1,-3.581452332E0,1.190228525E1
1.634872975E1,-2.503992920E0,1.323921890E1,-2.975811768E0,1.379863592E1
1.635866075E1,-2.599494324E0,1.505658966E1,-2.340832214E0,1.545761167E1
1.636859175E1,-3.016676788E0,1.636726410E1,-2.419269104E0,1.681786360E1
1.637852175E1,-3.948489075E0,1.654928558E1,-3.211571503E0,1.731426033E1
1.638845275E1,-4.722978516E0,1.528321838E1,-3.945644989E0,1.647578237E1
1.639838375E1,-4.738097076E0,1.362257172E1,-4.057312775E0,1.498285056E1
1.640831475E1,-4.157304840E0,1.203587128E1,-4.240082703E0,1.342101644E1
1.641824475E1,-3.340154114E0,1.151345764E1,-3.740870819E0,1.255828216E1
1.642817575E1,-2.365231476E0,1.153366562E1,-3.705394592E0,1.234300254E1
1.643810675E1,-1.393751678E0,1.126647125E1,-3.788920898E0,1.196795053E1
1.644803675E1,-8.015830994E-1,1.121153549E1,-2.828518066E0,1.159058144E1
1.645796775E1,3.132984924E-1,1.038255936E1,-1.745220795E0,1.053287664E1
1.646789875E1,1.400188293E0,8.906029816E0,-9.186396790E-1,9.062107547E0
1.647782875E1,1.637594604E0,7.403604126E0,-3.893403625E-1,7.592539500E0
1.648775975E1,2.014361115E0,5.647755432E0,3.085084534E-1,6.004162688E0
1.649769075E1,1.442550201E0,5.523813171E0,1.297950897E0,5.854753587E0
1.650762175E1,1.395248566E0,5.030439148E0,1.814227295E-1,5.223499860E0
1.651755175E1,1.551822968E0,4.611310730E0,-1.176403656E0,5.005623511E0
1.652748275E1,1.736987915E0,4.933141479E0,-1.756148071E0,5.516979964E0
1.653741375E1,4.736151123E-1,5.148094482E0,-2.045047302E0,5.559622878E0
1.654734375E1,-7.999365234E-1,4.702620850E0,-1.852996674E0,5.117434706E0
1.655727475E1,-1.555415497E0,4.088897095E0,-1.649719391E0,4.675464778E0
1.656720575E1,-2.172881470E0,3.560645599E0,-1.375489655E0,4.392218432E0
1.657713675E1,-2.306553497E0,3.072211304E0,-7.548802185E-1,3.915164808E0
