"Time (s)","Acceleration x (m/s^2)","Acceleration y (m/s^2)","Acceleration z (m/s^2)","Absolute acceleration (m/s^2)"
-1.238208337E-3,6.022725677E0,7.274422760E0,1.158141632E0,9.514817030E0
8.691791663E-3,6.134393463E0,7.352260895E0,1.198258209E0,9.649992029E0
1.862279166E-2,6.166726227E0,7.488627319E0,1.235680389E0,9.779312732E0
2.855379166E-2,6.263874207E0,7.718100128E0,1.146016846E0,1.000592546E1
3.848479166E-2,6.459367676E0,7.714657288E0,1.105301514E0,1.012230504E1
4.841479166E-2,6.166277161E0,7.928263092E0,1.022224274E0,1.009580468E1
5.834579167E-2,6.148913269E0,7.910300446E0,8.771759033E-1,1.005740648E1
6.827679166E-2,6.263724518E0,7.910150757E0,9.343569946E-1,1.013300315E1
7.820779167E-2,6.018534393E0,8.019722900E0,1.058448944E0,1.008261007E1
8.813779167E-2,5.925128632E0,8.048163757E0,1.135089569E0,1.005825619E1
9.806879166E-2,5.972280579E0,8.082442474E0,1.155147858E0,1.011574902E1
1.079997917E-1,5.729186096E0,7.977211304E0,1.125659180E0,9.885675601E0
1.179307917E-1,5.564378815E0,7.889942780E0,1.100361786E0,9.717216922E0
1.278607917E-1,5.655539246E0,7.734116821E0,1.103804626E0,9.644691380E0
1.377917917E-1,5.417983246E0,7.627388763E0,1.004561005E0,9.409609164E0
1.477222917E-1,5.306914215E0,7.769593048E0,1.092577972E0,9.472256397E0
1.576532917E-1,5.242248688E0,7.685318298E0,1.186283112E0,9.378302420E0
1.675832917E-1,5.556595001E0,7.627688141E0,1.178199921E0,9.510285455E0
1.775142917E-1,5.633684692E0,7.608677673E0,1.100661163E0,9.531098265E0
1.874452917E-1,5.913153534E0,7.451803894E0,1.032253418E0,9.568715332E0
1.973762917E-1,5.836363220E0,7.491621094E0,1.069825287E0,9.556780232E0
2.073062917E-1,5.691763916E0,7.620802460E0,1.100661163E0,9.575189899E0
2.172372917E-1,5.679190063E0,7.489675140E0,1.146914978E0,9.469099611E0
2.271682917E-1,5.625002747E0,7.447762299E0,1.195563812E0,9.409526661E0
2.370982917E-1,5.770500183E0,7.437583466E0,1.226998444E0,9.493252622E0
2.470292917E-1,5.945336609E0,7.377857666E0,1.331481171E0,9.568315068E0
2.569602917E-1,6.104306030E0,7.377408600E0,1.422940979E0,9.680571821E0
2.668912917E-1,6.171815643E0,7.325915680E0,1.369202728E0,9.676521327E0
2.768212917E-1,6.325545959E0,7.104825439E0,1.370699615E0,9.610925743E0
2.867522917E-1,6.252048798E0,6.936126251E0,1.310674438E0,9.429519024E0
2.966832917E-1,6.538253632E0,6.564299469E0,1.225950623E0,9.345680446E0
3.066142917E-1,6.872508545E0,6.089636536E0,9.972262573E-1,9.236314581E0
3.165442917E-1,7.508835297E0,5.492079163E0,6.095324707E-1,9.322932525E0
3.264752917E-1,6.724017334E0,5.706732788E0,8.791218567E-1,8.862960197E0
3.364062917E-1,4.628973999E0,6.324049072E0,1.053359528E0,7.907626904E0
3.463372917E-1,5.132975922E0,8.530760193E0,2.928210754E0,1.037765530E1
3.562672917E-1,5.579347687E0,9.566007385E0,4.455634460E0,1.193692994E1
3.661982917E-1,3.639531555E0,1.111648315E1,3.864962769E0,1.231910406E1
3.761292917E-1,1.908231812E0,1.047611481E1,2.059567108E0,1.084583546E1
3.860602917E-1,1.778302002E-1,1.092667786E1,-3.838018799E-1,1.093486243E1
3.959902917E-1,-7.620652771E-1,1.248897903E1,-9.220825195E-2,1.251254743E1
4.059212917E-1,-1.807790680E0,1.267638931E1,1.047970734E0,1.284745873E1
4.158522917E-1,-1.462458801E-1,1.079734680E1,-4.258644104E-1,1.080673153E1
4.257832917E-1,4.559817810E0,6.385870514E0,-2.065105591E0,8.113935037E0
4.357132917E-1,3.763922882E0,4.503085785E0,6.945556641E-2,5.869388480E0
4.456442917E-1,2.736609192E0,4.582720184E0,2.135010223E0,5.748793161E0
4.555752917E-1,3.361858978E0,4.462220764E0,4.351750488E0,7.081754179E0
4.655062917E-1,2.065854034E0,3.459156647E0,5.248535614E0,6.616694317E0
4.754362917E-1,8.250842285E-1,3.037034454E0,4.180656281E0,5.232803187E0
4.853672917E-1,1.805245972E-1,6.772366791E0,1.893412628E0,7.034383588E0
4.952982917E-1,2.946023712E0,7.641160126E0,7.680528259E-1,8.225344304E0
5.052282917E-1,-1.050814819E-1,5.411846008E0,3.944297791E-1,5.427217905E0
5.151592917E-1,-1.209484863E0,3.735931091E0,-1.325343933E0,4.144462727E0
5.250902917E-1,-3.686833191E0,2.460433502E0,-2.735561371E0,5.208624388E0
5.350212917E-1,-1.206042023E0,3.467090149E0,-2.420466614E0,4.397034238E0
5.449512917E-1,1.384470978E0,5.802084503E0,-3.415447540E0,6.873589046E0
5.548822917E-1,2.562072144E0,6.252647552E0,-2.188598785E0,7.102800837E0
5.648132917E-1,2.722987518E0,6.814129944E0,-3.702251129E0,8.219105264E0
5.747442917E-1,7.098239136E-1,8.971144409E0,-4.785398712E0,1.019241497E1
5.846742917E-1,2.185605011E0,9.267977142E0,-7.109166412E0,1.188328728E1
5.946052917E-1,2.555036774E0,1.457339447E1,-7.782915344E0,1.671782912E1
6.045362917E-1,1.613494720E0,1.496677643E1,-5.189258881E0,1.592281915E1
6.144672917E-1,2.529739380E-2,2.221515335E1,-7.116351471E0,2.332715449E1
6.243972917E-1,7.106472015E0,2.622860733E1,-3.926185455E0,2.745645132E1
6.343282917E-1,6.750362549E0,2.808100525E1,-1.438358917E0,2.891676204E1
6.442592917E-1,-2.622845764E0,2.912837723E1,-3.723207550E0,2.948226508E1
6.541902917E-1,-1.126482468E1,3.412932770E1,-5.885760498E0,3.641908100E1
6.641202917E-1,-3.768263855E0,1.906914551E1,-5.204527130E0,2.012260484E1
6.740512917E-1,-3.692820740E-1,7.342231750E0,-4.835394745E0,8.799191933E0
6.839822917E-1,-3.833677826E0,1.139400604E1,-3.099903717E0,1.241490485E1
6.939132917E-1,-1.115180969E0,1.144250519E1,-2.146835632E0,1.169544599E1
7.038432917E-1,1.903741150E0,1.044497955E1,-1.604812775E0,1.073765581E1
7.137742917E-1,5.407205658E0,9.524693298E0,-1.592538300E0,1.106769324E1
7.237052917E-1,8.012388153E0,8.224497070E0,-1.939367065E0,1.164482119E1
7.336362917E-1,9.714199219E0,5.141807556E0,-1.951192474E0,1.116292988E1
7.435662917E-1,1.040950333E1,2.439028015E0,-2.260898438E0,1.092786708E1
7.534972917E-1,1.113609238E1,4.802014160E-1,-2.041305084E0,1.133181686E1
7.634282917E-1,1.127500351E1,-2.869682465E0,-1.863175507E0,1.178270786E1
7.733592917E-1,1.303788757E1,-9.003477173E0,-3.112627258E0,1.614737013E1
7.832892917E-1,6.866071930E0,-1.199560501E1,-2.300116882E0,1.401171014E1
7.932202917E-1,1.370100861E0,-7.827522583E0,-1.121168518E0,8.025229280E0
8.031512917E-1,-9.687854004E-1,-4.024980011E0,-4.953499146E0,6.455707787E0
8.130812917E-1,1.094523926E0,-1.842668152E-1,-6.349196777E0,6.445481875E0
8.230122917E-1,4.816384277E0,3.343297577E0,-5.877078552E0,8.301520855E0
8.329432917E-1,7.916587372E0,8.929530945E0,-5.857619019E0,1.329362927E1
8.428742917E-1,1.158246414E1,1.706750793E1,-7.870034180E0,2.207692779E1
8.528042917E-1,1.568303696E1,2.346280884E1,-8.507109375E0,2.947595557E1
8.627352917E-1,1.575997696E1,2.167223236E1,-6.523584137E0,2.757933428E1
8.726662917E-1,1.117890335E1,1.636367157E1,-4.921166382E0,2.041948839E1
8.825972917E-1,7.326963501E0,1.303968384E1,-5.460045776E0,1.592262066E1
8.925272917E-1,5.431904297E0,1.131257538E1,-6.680008850E0,1.421627463E1
9.024582917E-1,4.566853180E0,1.057011932E1,-6.730903015E0,1.333748949E1
9.123892917E-1,4.469106445E0,1.030741562E1,-6.110592957E0,1.278886529E1
9.223202917E-1,4.462669830E0,1.016925293E1,-5.466781769E0,1.237799782E1
9.322502917E-1,4.552333374E0,1.004860382E1,-5.079836426E0,1.214507785E1
9.421812917E-1,4.553081818E0,9.821675720E0,-4.846920776E0,1.186121870E1
9.521122917E-1,4.300407257E0,9.490414581E0,-4.763244781E0,1.145643803E1
9.620432917E-1,4.071084137E0,9.049880676E0,-4.675078125E0,1.096952240E1
9.719732917E-1,3.489693146E0,8.947343903E0,-4.400848389E0,1.056410847E1
9.819042917E-1,3.482957153E0,8.402626648E0,-3.810775452E0,9.861903197E0
9.918352917E-1,3.035387878E0,7.713759155E0,-2.908900909E0,8.785064848E0
1.001766292E0,2.574945374E0,7.314838715E0,-2.247276764E0,8.073875275E0
1.011696292E0,2.777923279E0,6.902895355E0,-1.915267181E0,7.683428298E0
1.021627292E0,3.263064423E0,6.529721375E0,-1.586550751E0,7.470073222E0
1.031558292E0,3.810925140E0,6.047723694E0,-6.228547668E-1,7.175378761E0
1.041489292E0,4.157753906E0,5.667065277E0,4.866380310E-1,7.045520774E0
1.051419292E0,4.555177460E0,5.674100647E0,1.192719727E0,7.373441543E0
1.061350292E0,4.556225281E0,6.314768372E0,1.729503479E0,7.976632791E0
1.071281292E0,4.155358887E0,7.250921631E0,2.059417419E0,8.607210470E0
1.081212292E0,3.799997864E0,8.120164032E0,2.615511017E0,9.339054853E0
1.091142292E0,3.863615570E0,8.754993896E0,3.255879364E0,1.010832300E1
1.101073292E0,3.770060120E0,8.849896545E0,3.496578827E0,1.023523745E1
1.111004292E0,3.086132355E0,8.482410736E0,3.024310913E0,9.519556781E0
1.120934292E0,2.582130432E0,8.123906250E0,1.733694763E0,8.698904980E0
1.130865292E0,2.786455536E0,7.766299896E0,2.134561157E-1,8.253805913E0
1.140796292E0,3.417543182E0,7.188052368E0,-9.223818970E-1,8.012395810E0
1.150727542E0,4.424499207E0,6.136040039E0,-1.559756470E0,7.723989956E0
1.160657542E0,5.646557922E0,4.770280151E0,-1.961371307E0,7.647624893E0
1.170588542E0,6.499334564E0,4.872816925E0,-2.026036835E0,8.372008111E0
1.180519542E0,6.146518250E0,6.320905609E0,-6.619235229E-1,8.841474824E0
1.190450542E0,4.913681946E0,9.597741394E0,1.553768921E-1,1.078355471E1
1.200380542E0,2.489772491E0,1.442595108E1,-3.065774689E0,1.495680467E1
1.210311542E0,2.384391632E0,2.000559814E1,-8.839268646E0,2.200095341E1
1.220242542E0,2.452949066E0,2.109173950E1,-1.019484970E1,2.355447717E1
1.230173542E0,2.799179077E-2,1.307785446E1,-7.679181061E0,1.516577999E1
1.240103542E0,-1.648222504E0,5.874384155E0,-6.329437866E0,8.791291733E0
1.250034542E0,-1.830094299E0,4.328997803E0,-6.495442657E0,8.017496020E0
1.259965542E0,2.716850281E-1,6.514602814E0,-5.341492310E0,8.428843495E0
1.269896542E0,3.413800964E0,1.083461929E1,-3.299139404E0,1.182908843E1
1.279826542E0,6.095175018E0,1.580233887E1,-3.592379608E0,1.731387488E1
1.289757542E0,6.904691620E0,1.837324265E1,-4.171076202E0,2.006610795E1
1.299688542E0,4.022884369E0,1.854972565E1,-4.117337952E0,1.942236834E1
1.309619542E0,2.619552612E-1,1.686213501E1,-3.611988831E0,1.724664260E1
1.319549542E0,-2.074685669E0,1.425291092E1,-3.551215210E0,1.483445044E1
1.329480542E0,-3.057092743E0,1.242895386E1,-4.231101379E0,1.348061308E1
1.339411542E0,-2.996618500E0,1.065184937E1,-4.796924744E0,1.206035258E1
1.349342542E0,-1.448687439E0,8.948092346E0,-4.418811035E0,1.008429189E1
1.359272542E0,-1.754351807E-1,7.612419891E0,-3.712729340E0,8.471367850E0
1.369203542E0,1.000968475E0,6.539301453E0,-2.769540710E0,7.171802920E0
1.379134542E0,2.963686981E0,5.777685242E0,-2.039957886E0,6.806358457E0
1.389065542E0,4.287833405E0,5.266198883E0,-1.670675812E0,6.993534418E0
1.398995542E0,5.061424713E0,4.643194427E0,-1.389859772E0,7.007780305E0
1.408926542E0,6.071524200E0,4.145629120E0,-1.178948364E0,7.445775054E0
1.418857542E0,6.212530975E0,3.973786469E0,-1.174906769E0,7.467725620E0
1.428787542E0,5.697452087E0,4.037553864E0,-8.135581970E-1,7.030268731E0
1.438718542E0,5.143304443E0,4.714446259E0,-4.938230896E-1,6.994529674E0
1.448649542E0,4.763394470E0,5.925278320E0,-5.038522339E-1,7.619233369E0
1.458580542E0,4.516707458E0,7.373367004E0,-8.812174988E-1,8.691589701E0
1.468510542E0,4.079017639E0,8.744066620E0,-1.506317596E0,9.765555727E0
1.478441542E0,3.504212952E0,1.003588028E1,-1.789828033E0,1.077969785E1
1.488372542E0,2.953957214E0,1.057745407E1,-2.099234619E0,1.118101891E1
1.498303542E0,2.127825165E0,1.057595718E1,-2.496059418E0,1.107288684E1
1.508233542E0,1.529968414E0,1.023870850E1,-2.634072418E0,1.068224192E1
1.518164542E0,9.665400696E-1,9.750723267E0,-2.654879150E0,1.015180709E1
1.528095542E0,5.885760498E-1,9.480385437E0,-2.787503357E0,9.899207280E0
1.538026542E0,2.070195007E-1,9.163344727E0,-2.677781525E0,9.548835403E0
1.547956542E0,-2.384541321E-1,9.092691650E0,-2.476150818E0,9.426835349E0
1.557887542E0,-5.704637146E-1,9.258995819E0,-2.204316101E0,9.534854058E0
1.567818542E0,-7.732919312E-1,9.495803375E0,-2.064656525E0,9.748388006E0
1.577749542E0,-7.831713867E-1,9.801318054E0,-1.998943176E0,1.003369159E1
1.587679542E0,-7.080276489E-1,1.011386810E1,-2.183659058E0,1.037111364E1
1.597610542E0,-6.900650024E-1,1.029678772E1,-2.664608917E0,1.065833794E1
1.607541542E0,-6.349795532E-1,1.007105713E1,-3.416495361E0,1.065372382E1
1.617472542E0,-4.281097412E-1,9.272018738E0,-4.240831146E0,1.020481544E1
1.627402542E0,5.343887329E-2,7.951614532E0,-4.802163849E0,9.289338352E0
1.637333542E0,9.072633362E-1,6.197711792E0,-4.893623657E0,7.948730132E0
1.647264542E0,2.096390533E0,4.458628235E0,-4.233945465E0,6.496192208E0
1.657194542E0,3.031346283E0,3.544179840E0,-3.073708191E0,5.585512785E0
1.667125542E0,3.340752869E0,3.992347870E0,-2.230661316E0,5.663507848E0
1.677056542E0,3.179089050E0,5.678441620E0,-2.321222992E0,6.909369190E0
1.686987542E0,2.841840363E0,8.325087891E0,-3.324436798E0,9.403989848E0
1.696917542E0,2.149380341E0,1.091530151E1,-4.632117462E0,1.205073256E1
1.706848542E0,2.150577850E0,1.352796844E1,-5.425617371E0,1.473323587E1
1.716779542E0,2.383194122E0,1.435215454E1,-5.489085388E0,1.554972709E1
1.726710542E0,1.906884613E0,1.226938568E1,-4.612059174E0,1.324556997E1
1.736640542E0,1.181044006E0,9.585167542E0,-2.539169769E0,9.985874266E0
1.746571542E0,6.785389709E-1,7.755073242E0,-4.957690430E-1,7.800471977E0
1.756502542E0,4.089495850E-1,7.036717072E0,8.649014282E-1,7.101456286E0
1.766433542E0,8.696914673E-2,6.477929077E0,1.668430481E0,6.689902020E0
1.776363542E0,-3.839515686E-1,6.162085876E0,1.909728699E0,6.462645345E0
1.786294542E0,-1.229094086E0,6.131848755E0,1.551224213E0,6.443332832E0
1.796225542E0,-1.969304810E0,6.761589203E0,7.134164429E-1,7.078574221E0
1.806156542E0,-1.090632019E0,8.371341705E0,6.984475708E-1,8.470930832E0
1.816086542E0,-3.218307495E-2,1.151959488E1,6.379733276E-1,1.153729223E1
1.826017542E0,6.762936401E-1,1.587224350E1,6.047424316E-2,1.588676002E1
1.835948542E0,3.290008392E0,2.044164139E1,-2.556683350E-1,2.070628465E1
1.845879542E0,7.369774475E0,2.511926422E1,-3.290158081E-1,2.618013106E1
1.855809542E0,9.974507904E0,2.671749069E1,1.088985443E0,2.853946401E1
1.865740542E0,9.013805695E0,2.255404861E1,3.055895233E0,2.448003876E1
1.875671542E0,5.707181854E0,1.571492065E1,3.006198578E0,1.698728600E1
1.885602542E0,4.528682556E0,1.154728729E1,1.782493286E0,1.253100522E1
1.895532542E0,3.469036102E0,8.033943329E0,9.624984741E-2,8.751441077E0
1.905463542E0,4.521347809E0,5.813311157E0,-1.920655975E0,7.610919261E0
1.915394542E0,5.776038666E0,5.504952393E0,-3.466641083E0,8.699696771E0
1.925324542E0,4.117188263E0,5.052443390E0,-4.136049042E0,7.719153132E0
1.935255542E0,3.264411621E0,5.927074585E0,-4.228107605E0,7.978940424E0
1.945186542E0,2.873873749E0,7.140601044E0,-3.864962769E0,8.613087181E0
1.955117542E0,2.168989563E0,7.082521820E0,-3.535198517E0,8.207573308E0
1.965047542E0,1.498533783E0,7.048841858E0,-3.307372284E0,7.929091150E0
1.974978542E0,1.296004944E0,7.024741974E0,-2.967728577E0,7.735246701E0
1.984909542E0,1.288221130E0,7.117399292E0,-2.850522308E0,7.774468715E0
1.994840542E0,1.245110779E0,7.321275330E0,-2.847229156E0,7.953495280E0
2.004770542E0,1.078956299E0,7.604785767E0,-2.820285187E0,8.182354294E0
2.014701542E0,9.857002258E-1,7.470664673E0,-2.749781799E0,8.021454702E0
2.024632542E0,8.170010376E-1,6.901847534E0,-2.757864990E0,7.477219362E0
2.034563542E0,5.465135193E-1,6.421795807E0,-2.903212738E0,7.068718598E0
2.044493542E0,1.793270874E-1,6.430777130E0,-3.199895782E0,7.185150362E0
2.054424542E0,-1.902543640E-1,6.583160248E0,-3.373983765E0,7.399862297E0
2.064355542E0,-4.888833618E-1,6.798712006E0,-3.284170532E0,7.566192435E0
2.074286542E0,-7.131170654E-1,6.986721039E0,-3.058140564E0,7.659962828E0
2.084216542E0,-9.842033386E-1,7.152725830E0,-2.991678772E0,7.815387699E0
2.094147542E0,-1.199306030E0,7.275171204E0,-2.741997986E0,7.866702228E0
2.104078542E0,-1.164727936E0,7.248975677E0,-2.427352295E0,7.732805358E0
2.114008542E0,-9.886940002E-1,7.359445953E0,-2.256407776E0,7.760820615E0
2.123939542E0,-5.987548828E-1,7.521259460E0,-2.492616577E0,7.946130422E0
2.133870542E0,-4.475692749E-2,7.749684448E0,-3.009192352E0,8.313534197E0
2.143801542E0,7.065307617E-1,7.995173950E0,-3.319048004E0,8.685509304E0
2.153731458E0,1.370549927E0,7.643854523E0,-3.927083588E0,8.702235608E0
2.163662458E0,1.922901306E0,6.719676361E0,-4.799170074E0,8.478421624E0
2.173593458E0,2.611170044E0,6.864874420E0,-5.498815155E0,9.175057379E0
2.183524458E0,4.025279388E0,8.317453766E0,-6.064339142E0,1.105256172E1
2.193454458E0,5.843248901E0,9.946366425E0,-5.726940765E0,1.287911539E1
2.203385458E0,6.701564026E0,1.087338867E1,-5.016069031E0,1.372233545E1
2.213316458E0,6.886130219E0,1.143561951E1,-4.782704315E0,1.417978997E1
2.223247458E0,6.965465240E0,1.140104141E1,-4.787644043E0,1.419235663E1
2.233177458E0,6.688690796E0,1.072624466E1,-4.827610931E0,1.353132426E1
2.243108458E0,6.689588928E0,9.959539032E0,-5.383554840E0,1.315012093E1
2.253039458E0,7.088659058E0,8.828940125E0,-6.143524475E0,1.288185406E1
2.262970458E0,7.134613495E0,7.729925537E0,-6.639293518E0,1.243923940E1
2.272900458E0,6.597530365E0,7.705975342E0,-6.526128845E0,1.206233065E1
2.282831458E0,5.562283173E0,8.948990479E0,-5.410648499E0,1.184476854E1
2.292762458E0,4.425247650E0,1.120090759E1,-4.366120605E0,1.281039253E1
2.302693458E0,3.584146729E0,1.520672745E1,-3.028352509E0,1.591419449E1
2.312623458E0,2.350412292E0,2.104279129E1,-1.559008026E0,2.123096817E1
2.322554458E0,-1.050814819E0,2.669818085E1,-1.282383270E0,2.674960895E1
2.332485458E0,-3.583248596E0,2.573463455E1,-2.129621429E0,2.607002826E1
2.342416458E0,-2.856060791E0,1.459255463E1,-2.529739380E0,1.508308042E1
2.352346458E0,-3.317401428E0,6.752009125E0,-3.017874298E0,8.105698288E0
2.362277458E0,-3.674708405E0,4.687651978E0,-3.267555084E0,6.793708792E0
2.372208458E0,-1.941612396E0,4.724625092E0,-3.097359009E0,5.973740351E0
2.382139458E0,2.646496582E-1,4.574786682E0,-1.076561279E0,4.707196280E0
2.392069458E0,1.160536652E0,4.945116577E0,1.243164825E0,5.229386395E0
2.402000458E0,2.282004547E0,6.137536926E0,1.780247955E0,6.785734084E0
2.411931458E0,3.133284302E0,7.675139465E0,1.753902740E0,8.473571334E0
2.421861458E0,3.702550507E0,9.766141205E0,1.430275726E0,1.054192027E1
2.431792458E0,3.325634308E0,1.226220062E1,1.004411316E-1,1.270556949E1
2.441723458E0,2.500999146E0,1.332289490E1,-4.565505981E-1,1.356329472E1
2.451654458E0,1.109941864E0,1.304567139E1,-8.047265625E-1,1.311751111E1
2.461584458E0,-9.131011963E-1,1.131062943E1,-2.109263763E0,1.154179732E1
2.471515458E0,-2.532134399E0,1.021386017E1,-3.238515472E0,1.101011474E1
2.481446458E0,-3.713178406E0,9.320218506E0,-4.023782501E0,1.080948623E1
2.491377458E0,-3.592080231E0,7.811655579E0,-4.138294373E0,9.542037706E0
2.501307458E0,-2.552941132E0,6.838379517E0,-2.854414215E0,7.837641440E0
2.511238458E0,-2.074685669E0,6.493197327E0,-2.396815796E0,7.225694299E0
2.521169458E0,-1.421144714E0,6.731501770E0,-2.609972534E0,7.358309929E0
2.531100458E0,-3.604504395E-1,7.381300507E0,-2.999013519E0,7.975437529E0
2.541030458E0,2.636018372E-1,8.115673370E0,-2.845432892E0,8.604076274E0
2.550961458E0,4.769082642E-1,8.736731873E0,-2.686313782E0,9.152825085E0
2.560892458E0,9.077124023E-1,8.910819855E0,-2.202370148E0,9.223724115E0
2.570823458E0,1.076411591E0,9.046437836E0,-1.834734650E0,9.293166880E0
2.580753458E0,9.135502625E-1,9.728419647E0,-1.530267792E0,9.890320643E0
2.590684458E0,1.083147583E0,1.014769775E1,-1.681453400E0,1.034293304E1
2.600615458E0,6.631210327E-1,1.017509079E1,-1.965562592E0,1.038439398E1
2.610546458E0,4.661306763E-1,9.912387085E0,-1.980082397E0,1.011896348E1
2.620476458E0,4.788542175E-1,9.636211395E0,-2.006577301E0,9.854553459E0
2.630407458E0,6.577322388E-1,9.325756989E0,-2.476001129E0,9.671242769E0
2.640338458E0,6.123765564E-1,8.987610168E0,-2.902314606E0,9.464437208E0
2.650268458E0,8.211923218E-1,8.874744873E0,-3.073109436E0,9.427590095E0
2.660199458E0,8.562194824E-1,8.879834290E0,-3.285667419E0,9.506849068E0
2.670130458E0,1.123862915E0,8.904832306E0,-3.400478668E0,9.598039457E0
2.680061458E0,1.214873657E0,9.149872742E0,-3.207529907E0,9.771608736E0
2.689991458E0,1.010847931E0,9.412726135E0,-3.320694580E0,1.003235961E1
2.699922458E0,1.043031006E0,9.823172607E0,-3.235222321E0,1.039467639E1
2.709853458E0,9.967771912E-1,9.827513580E0,-3.469634857E0,1.046957277E1
2.719784458E0,8.535250854E-1,9.766141205E0,-3.894152069E0,1.054848043E1
2.729714458E0,4.194277954E-1,9.557026062E0,-4.232897644E0,1.046088377E1
2.739645458E0,1.100212097E0,9.575437775E0,-4.254003754E0,1.053546502E1
2.749576458E0,1.168769531E0,9.199719086E0,-3.865112457E0,1.004688747E1
2.759507458E0,1.032852173E0,8.233478394E0,-3.782783661E0,9.119561519E0
2.769437458E0,1.433119812E0,7.199279022E0,-3.148851929E0,7.987410050E0
2.779368458E0,2.006876678E0,6.533613281E0,-2.442470856E0,7.258189884E0
2.789299458E0,1.929936676E0,6.710695038E0,-2.028431854E0,7.271356081E0
2.799230458E0,1.117126923E0,7.597750397E0,-2.254611511E0,8.003565250E0
2.809160458E0,-3.983216858E-1,9.053922272E0,-3.026256866E0,9.554600949E0
2.819091458E0,-1.936822357E0,1.051982391E1,-4.040847015E0,1.143444011E1
2.829022458E0,-2.586770782E0,1.154474258E1,-5.083428955E0,1.287686741E1
2.838952458E0,-2.312241669E0,1.217193832E1,-5.750591583E0,1.365913056E1
2.848883458E0,5.483097839E-1,1.245978973E1,-5.807173920E0,1.375755330E1
2.858814458E0,3.128494263E0,1.164293839E1,-4.553979950E0,1.288736684E1
2.868745458E0,4.129013672E0,1.026430527E1,-2.597847748E0,1.136457344E1
2.878675458E0,4.945565643E0,9.326655121E0,-8.982820129E-1,1.059490566E1
2.888606458E0,5.285059662E0,8.648116150E0,2.713856506E-1,1.013880756E1
2.898537458E0,5.178032227E0,8.347840576E0,4.677772522E-1,9.834494170E0
2.908468458E0,4.485572205E0,7.915689240E0,1.339714050E-1,9.099255051E0
2.918398458E0,3.714226227E0,7.450307007E0,-6.182144165E-2,8.325044916E0
2.928329458E0,2.513273621E0,6.995552673E0,-2.362088013E-1,7.437075776E0
2.938260458E0,1.441053314E0,6.639742584E0,-2.342628479E-1,6.798359752E0
2.948191458E0,7.155120850E-2,6.481820984E0,-2.215393066E-2,6.482253747E0
2.958121458E0,-1.986369324E0,6.865024109E0,-1.231938171E-1,7.147684648E0
2.968052458E0,-4.031266937E0,8.105943604E0,-1.156345367E0,9.126585858E0
2.977983458E0,-3.946692810E0,9.848769379E0,-1.805395660E0,1.076262495E1
2.987913458E0,-3.252436523E0,1.241817627E1,-2.223326569E0,1.302814746E1
2.997844458E0,-2.033670959E0,1.565294952E1,-2.558928680E0,1.599058355E1
3.007775458E0,3.758683777E-1,1.858280685E1,-2.499053192E0,1.875385972E1
3.017706458E0,4.185296631E0,2.046214874E1,-7.710466003E-1,2.090001799E1
3.027636458E0,6.493496704E0,2.049777466E1,1.409618683E0,2.154788366E1
3.037567458E0,6.342460785E0,1.762958908E1,1.610201569E0,1.880483898E1
3.047498458E0,5.507497101E0,1.303115158E1,1.668729858E0,1.424528326E1
3.057429458E0,5.319338379E0,9.355095978E0,9.912387085E-1,1.080720758E1
3.067359458E0,5.043162689E0,7.478598175E0,-2.359094238E-1,9.023224137E0
3.077290458E0,5.132526855E0,5.533243561E0,-1.122665405E0,7.630202739E0
3.087221458E0,5.287903748E0,4.958588562E0,-1.714534607E0,7.449104341E0
3.097152458E0,4.999303894E0,5.790708160E0,-2.566562805E0,8.069236956E0
3.107082458E0,4.577331390E0,6.900650024E0,-3.581602020E0,9.022128709E0
3.117013458E0,3.778592377E0,7.266938324E0,-3.889661407E0,9.067282880E0
3.126944458E0,2.695145416E0,7.230863342E0,-3.766617279E0,8.587001759E0
3.136875458E0,1.773511963E0,7.272476807E0,-3.359164581E0,8.204769971E0
3.146805458E0,1.036444702E0,7.362888794E0,-2.897823944E0,7.980208808E0
3.156737167E0,4.803511047E-1,7.290289764E0,-2.501747589E0,7.722551588E0
3.166668167E0,1.769320679E-1,7.232659607E0,-2.323168945E0,7.598669877E0
3.176599167E0,1.601669312E-2,7.177274780E0,-2.205214233E0,7.508428572E0
3.186529167E0,-4.730163574E-2,6.938371582E0,-2.015109558E0,7.225226930E0
3.196460167E0,-8.711883545E-2,6.674021301E0,-2.122286682E0,7.003873984E0
3.206391167E0,-1.272354126E-2,6.491850128E0,-2.544558563E0,6.972736784E0
3.216321167E0,1.811233521E-1,6.393953705E0,-2.854114838E0,7.004385851E0
3.226252167E0,3.472778320E-1,6.310876465E0,-3.035986633E0,7.011774275E0
3.236183167E0,4.412823486E-1,6.248755646E0,-3.131488037E0,7.003420204E0
3.246114167E0,6.614744568E-1,6.258485413E0,-3.264411621E0,7.089610098E0
3.256044167E0,1.058299255E0,6.273304596E0,-3.477718048E0,7.250439345E0
3.265975167E0,1.643432465E0,6.479126587E0,-3.551065521E0,7.569016973E0
3.275906167E0,2.394271088E0,6.775210876E0,-3.670666809E0,8.069065081E0
3.285837167E0,3.077749786E0,7.145091705E0,-3.636238403E0,8.587613694E0
3.295767167E0,3.794010315E0,7.586374054E0,-3.353626099E0,9.121096073E0
3.305698167E0,4.642895050E0,8.163274384E0,-2.761457520E0,9.788828875E0
3.315629167E0,5.929469604E0,9.207502899E0,-1.609004059E0,1.106912885E1
3.325560167E0,7.638465729E0,1.071471863E1,-4.384382629E-1,1.316600099E1
3.335490167E0,9.657167816E0,1.158141632E1,-6.617738342E-1,1.509397359E1
3.345421167E0,1.027418472E1,1.152633087E1,-2.862347717E0,1.570376418E1
3.355352167E0,7.199279022E0,1.119656662E1,-5.027894440E0,1.422928125E1
3.365283167E0,5.275629272E0,1.105645798E1,-5.686375122E0,1.350601308E1
3.375213167E0,5.188660126E0,1.052551208E1,-5.752088470E0,1.306886071E1
3.385144167E0,5.988746338E0,9.305848389E0,-6.101761322E0,1.263706406E1
3.395075167E0,6.931635590E0,8.333769836E0,-6.263275452E0,1.251910185E1
3.405005167E0,7.458839264E0,8.979077911E0,-5.614374847E0,1.295296600E1
3.414936167E0,7.498506775E0,1.023855881E1,-4.383783875E0,1.342658748E1
3.424867167E0,7.005581818E0,1.235186417E1,-2.488125916E0,1.441657017E1
3.434798167E0,6.107449493E0,1.553245010E1,-4.346960449E-1,1.669571520E1
3.444728167E0,3.831282806E0,1.905612259E1,4.848417664E-1,1.944349782E1
3.454659167E0,1.258133698E0,2.008568161E1,-4.505630493E-2,2.012509717E1
3.464590167E0,1.133143616E-1,1.657024200E1,-1.143771515E0,1.661005640E1
3.474521167E0,-1.048270111E0,1.274270142E1,-2.375260620E0,1.300450586E1
3.484451167E0,-2.096689911E0,1.007704468E1,-3.268902283E0,1.079947499E1
3.494382167E0,-1.855691071E0,8.075556793E0,-3.284918976E0,8.913411218E0
3.504313167E0,-4.240681458E-1,7.000791779E0,-2.681374054E0,7.508707355E0
3.514244167E0,8.939410400E-1,6.778354340E0,-1.589843903E0,7.019460219E0
3.524174167E0,1.249900818E0,6.441704407E0,-9.984237671E-1,6.637368284E0
3.534105167E0,6.780899048E-1,6.344556427E0,-1.869312744E0,6.648874515E0
3.544036167E0,1.400337982E0,7.060068512E0,-1.367855530E0,7.326427684E0
3.553967167E0,9.117539978E-1,8.291258240E0,-2.104623413E0,8.602656465E0
3.563897167E0,-1.289568329E0,8.945847015E0,-2.586471405E0,9.401116935E0
3.573828167E0,2.242337036E-1,1.022942780E1,-1.988315277E0,1.042328506E1
3.583759167E0,-7.454498291E-2,1.135823044E1,-2.236948242E0,1.157665293E1
3.593690167E0,-1.182241516E0,1.068448151E1,-3.229983215E0,1.122446576E1
3.603620167E0,-1.377585297E0,9.953252106E0,-3.271596680E0,1.056732291E1
3.613551167E0,-1.034498749E0,9.233399048E0,-1.835483093E0,9.470736182E0
3.623482167E0,-1.452579346E0,8.147407379E0,-2.629581757E0,8.683601440E0
3.633412167E0,-1.791624298E0,6.524482269E0,-4.315376129E0,8.025039417E0
3.643343167E0,-3.550616455E-1,6.545438690E0,-3.777694244E0,7.565699586E0
3.653274167E0,7.753875732E-1,6.898704071E0,-2.937341766E0,7.537991802E0
3.663205167E0,1.529219971E0,7.470365295E0,-2.337089996E0,7.975390963E0
3.673135167E0,1.999841309E0,8.170758820E0,-2.224524078E0,8.701101788E0
3.683066167E0,2.520907745E0,8.659342804E0,-2.315983887E0,9.311443230E0
3.692997167E0,2.664459229E0,9.264085236E0,-2.222278748E0,9.892479015E0
3.702928167E0,3.026406555E0,9.489516449E0,-1.849104767E0,1.013060943E1
3.712858167E0,2.835403748E0,8.793463898E0,-1.853146362E0,9.423304790E0
3.722789167E0,2.292931824E0,8.489595795E0,-2.100731506E0,9.041230335E0
3.732720167E0,2.357297974E0,8.202642517E0,-2.164199524E0,8.804769025E0
3.742651167E0,2.301015015E0,8.037984924E0,-2.161804504E0,8.635813248E0
3.752581167E0,2.324366455E0,8.034242706E0,-2.391277313E0,8.698847192E0
3.762512167E0,2.582429810E0,8.267008667E0,-2.596949615E0,9.041931394E0
3.772443167E0,2.546354828E0,8.569080505E0,-2.569855957E0,9.301463501E0
3.782373167E0,2.477797394E0,8.973838806E0,-2.348765717E0,9.601352157E0
3.792304167E0,2.367177429E0,9.334289246E0,-2.170636139E0,9.871380144E0
3.802235167E0,2.021995239E0,9.522747345E0,-2.121089172E0,9.963443231E0
3.812166167E0,1.289268951E0,9.510173492E0,-2.266436920E0,9.861153614E0
3.822096167E0,9.252259827E-1,9.800868988E0,-2.702929230E0,1.020876596E1
3.832027167E0,1.249152374E0,1.020577698E1,-3.421584778E0,1.083630508E1
3.841958167E0,1.591640167E0,1.047506699E1,-4.582420807E0,1.154378306E1
3.851889167E0,1.171014862E0,9.457632751E0,-5.137616272E0,1.082650424E1
3.861819167E0,6.599775696E-1,8.426576843E0,-4.499642944E0,9.575466271E0
3.871750167E0,1.505868530E0,9.524244232E0,-3.639082489E0,1.030639557E1
3.881681167E0,1.987866211E0,1.016925293E1,-3.342998199E0,1.088765145E1
3.891612167E0,1.810335388E0,9.038803711E0,-3.419189758E0,9.831996000E0
3.901542167E0,1.923050995E0,7.665858765E0,-3.222798157E0,8.535217847E0
3.911473167E0,2.648442535E0,6.847360840E0,-2.844534760E0,7.873498354E0
3.921404167E0,3.001109161E0,6.706054688E0,-2.897374878E0,7.897632991E0
3.931335167E0,2.611469421E0,7.537725220E0,-3.588038635E0,8.747062094E0
3.941265167E0,1.118623810E0,8.900042267E0,-4.996609497E0,1.026782246E1
3.951196167E0,-4.029620361E-1,9.524543610E0,-6.583908691E0,1.158564470E1
3.961127167E0,-4.840933228E-1,1.003677841E1,-7.302414551E0,1.242161525E1
3.971057167E0,-1.722917175E-1,1.027762756E1,-6.059998169E0,1.193243020E1
3.980988167E0,8.083190918E-1,9.889484711E0,-4.451742554E0,1.087535284E1
3.990919167E0,1.711540833E0,9.265731812E0,-3.122357025E0,9.926342298E0
4.000850167E0,1.912123718E0,8.911119232E0,-1.854493561E0,9.300720910E0
4.010780167E0,1.547781372E0,9.126521301E0,-6.327342224E-1,9.278435797E0
4.020711167E0,1.060694275E0,9.547445984E0,6.041436768E-1,9.625164245E0
4.030642167E0,9.446855164E-1,9.623787231E0,1.816173248E0,9.839115645E0
4.040573167E0,1.116528168E0,9.451794891E0,2.536325684E0,9.849670542E0
4.050503167E0,4.468208313E-1,9.359137573E0,2.358196106E0,9.661997404E0
4.060434167E0,-1.243464203E0,9.713001709E0,1.500779114E0,9.906611094E0
4.070365167E0,-2.877166901E0,1.043495041E1,6.876699829E-1,1.084615920E1
4.080296167E0,-2.978057098E0,1.118698654E1,-2.664459229E-1,1.157965826E1
4.090226167E0,-1.288819885E0,1.256846375E1,-1.107995911E0,1.268286216E1
4.100157167E0,1.493594055E0,1.427895676E1,-1.371298370E0,1.442220124E1
4.110088167E0,4.107757874E0,1.587703354E1,-9.177415466E-1,1.642547163E1
4.120019167E0,6.906936951E0,1.758947250E1,9.924362183E-2,1.889722652E1
4.129949167E0,7.224726105E0,1.732691849E1,7.979905701E-1,1.878977276E1
4.139880167E0,5.398074646E0,1.320494019E1,8.244854736E-1,1.428948675E1
4.149811167E0,3.847598877E0,9.544751587E0,2.939886475E-1,1.029527704E1
4.159740667E0,3.608695679E0,7.641459503E0,-4.595443726E-1,8.463200864E0
4.169671667E0,3.668421478E0,7.204368439E0,-1.239123230E0,8.178977144E0
4.179602667E0,2.732717285E0,6.953340454E0,-1.117725677E0,7.554203990E0
4.189533667E0,2.616259460E0,7.256759491E0,-1.873803406E0,7.938293965E0
4.199463667E0,2.947071533E0,6.873256989E0,-3.229234772E0,8.145848603E0
4.209394667E0,3.050057373E0,7.483687592E0,-4.188589783E0,9.102346638E0
4.219325667E0,2.112556915E0,8.325387268E0,-3.828738098E0,9.403946262E0
4.229256667E0,1.495540009E0,7.984995117E0,-3.190016327E0,8.727713968E0
4.239186667E0,1.592089233E0,8.247249756E0,-2.618055725E0,8.798073223E0
4.249117667E0,1.570534058E0,8.448880463E0,-1.952090607E0,8.812537435E0
4.259048667E0,1.442999268E0,8.454269257E0,-1.347048798E0,8.681673572E0
4.268979667E0,1.505120087E0,8.258476410E0,-1.064735870E0,8.461765865E0
4.278909667E0,1.468745728E0,7.852071533E0,-1.225800934E0,8.081759048E0
4.288840667E0,1.218466187E0,7.541018372E0,-1.541195068E0,7.792746638E0
4.298771667E0,7.812254333E-1,7.412585449E0,-1.991758118E0,7.715169254E0
4.308701667E0,4.257147217E-1,7.363188171E0,-2.395318909E0,7.754697012E0
4.318632667E0,1.107696533E-1,7.504793701E0,-2.826572113E0,8.020206252E0
4.328563667E0,-4.819976807E-2,7.772287445E0,-3.287164307E0,8.438970584E0
4.338494667E0,2.080673218E-2,7.847580872E0,-3.687881012E0,8.670952936E0
4.348424667E0,2.392025757E-1,7.476352844E0,-3.762276306E0,8.373039635E0
4.358355667E0,4.819976807E-1,7.109465790E0,-3.605252838E0,7.985904683E0
4.368286667E0,1.097218323E0,6.829248505E0,-3.043920135E0,7.556981737E0
4.378217667E0,1.888173523E0,6.614145813E0,-2.420167236E0,7.291730490E0
4.388147667E0,2.876717834E0,6.684499512E0,-1.570384369E0,7.444739504E0
4.398078667E0,4.991370392E0,7.232060852E0,-7.517367554E-1,8.819387207E0
4.408009667E0,7.520960083E0,8.159831543E0,-4.044589233E-1,1.110456115E1
4.417940667E0,8.446934509E0,9.454040222E0,-7.466473389E-1,1.269988431E1
4.427870667E0,9.100924530E0,1.040606049E1,-1.983824615E0,1.396597588E1
4.437801667E0,6.807393951E0,1.053254745E1,-3.451223145E0,1.300715609E1
4.447732667E0,5.188211060E0,9.867929535E0,-4.050876160E0,1.186183649E1
4.457663667E0,4.886288910E0,9.135352936E0,-3.758983154E0,1.102090953E1
4.467593667E0,4.121080170E0,8.423583069E0,-3.408711548E0,9.977944072E0
4.477524667E0,4.169130249E0,7.638765106E0,-4.685107269E0,9.883451295E0
4.487455667E0,4.202510834E0,7.605384521E0,-5.476810913E0,1.027124281E1
4.497385667E0,4.826712799E0,7.529342651E0,-5.383854218E0,1.043906334E1
4.507316667E0,5.658832397E0,8.091723175E0,-3.924239502E0,1.062534817E1
4.517247667E0,6.064039764E0,9.681716766E0,-2.203717346E0,1.163462883E1
4.527178667E0,6.038442993E0,1.289239014E1,-7.679031372E-2,1.423665740E1
4.537108667E0,5.746100922E0,1.810559921E1,9.991722107E-1,1.902179654E1
4.547039667E0,5.097050629E0,2.359947464E1,2.149530029E-1,2.414459221E1
4.556970667E0,2.415227509E0,2.371413620E1,-8.080197144E-1,2.385050263E1
4.566901667E0,-3.945794678E-1,1.711840210E1,-1.086291046E0,1.715737193E1
4.576831667E0,-2.808160400E0,1.200758011E1,-1.386416931E0,1.240926657E1
4.586762667E0,-3.133134613E0,9.051377563E0,-2.772684174E0,9.971546812E0
4.596693667E0,-2.485281830E0,7.807314606E0,-3.246748352E0,8.813181150E0
4.606624667E0,-1.746118927E0,7.836952972E0,-2.568059692E0,8.429809831E0
4.616554667E0,-1.509311371E0,8.236472168E0,-1.354084167E0,8.482395801E0
4.626485667E0,-1.781295776E0,9.028325500E0,-1.206640778E0,9.281145293E0
4.636416667E0,-2.044897614E0,1.020742355E1,-2.218835907E0,1.064407510E1
4.646347667E0,-3.200943604E0,1.074765015E1,-3.560795288E0,1.176593756E1
4.656277667E0,-3.615880737E0,1.049392776E1,-3.738026733E0,1.171195788E1
4.666208667E0,-2.544708252E0,1.047686325E1,-2.936892700E0,1.117432514E1
4.676139667E0,-1.505419464E0,9.584269409E0,-2.280807037E0,9.966272554E0
4.686069667E0,-9.864486694E-1,8.747060394E0,-2.620750122E0,9.184360496E0
4.696000667E0,-7.185058594E-2,8.451125793E0,-2.989882507E0,8.964713442E0
4.705931667E0,3.685336304E-1,7.880512390E0,-3.855382690E0,8.780789729E0
4.715862667E0,8.271798706E-1,7.828420715E0,-3.455863495E0,8.597173369E0
4.725792667E0,1.079854431E0,8.097561035E0,-2.938539276E0,8.681681484E0
4.735723667E0,1.149609375E0,8.083939362E0,-2.821782074E0,8.639104779E0
4.745654667E0,1.069675598E0,8.063881073E0,-2.492915955E0,8.507938281E0
4.755585667E0,6.929090881E-1,8.180189209E0,-2.150727539E0,8.486533300E0
4.765515667E0,1.336720276E-1,8.601413269E0,-1.765279083E0,8.781707617E0
4.775446667E0,9.984237671E-2,9.026678925E0,-1.624421997E0,9.172221527E0
4.785377667E0,3.986210632E-1,8.544681244E0,-1.768871613E0,8.734951808E0
4.795307667E0,6.125262451E-1,8.902586975E0,-2.006128235E0,9.146354123E0
4.805238667E0,5.795947266E-1,9.395062866E0,-2.427202606E0,9.720825520E0
4.815169667E0,1.005010071E0,9.582323456E0,-3.016676788E0,1.009610355E1
4.825100667E0,1.550176392E0,9.787097626E0,-3.393742676E0,1.047414990E1
4.835030667E0,1.828298035E0,9.794881439E0,-3.630849609E0,1.060497265E1
4.844961667E0,2.173929291E0,9.972861328E0,-3.587739258E0,1.081923309E1
4.854892667E0,2.379152527E0,1.022344025E1,-3.412453766E0,1.103738818E1
4.864823667E0,2.333198090E0,1.034528687E1,-3.237916718E0,1.108841189E1
4.874753667E0,2.292033691E0,1.023885818E1,-3.078198853E0,1.093448415E1
4.884684667E0,2.349963226E0,9.839338989E0,-3.169958038E0,1.060111093E1
4.894615667E0,2.494263153E0,9.545050964E0,-3.461551666E0,1.045522293E1
4.904546667E0,2.888393555E0,9.184450836E0,-3.803141327E0,1.035185193E1
4.914476667E0,3.335364075E0,8.873547363E0,-3.969295807E0,1.027714968E1
4.924407667E0,4.041894836E0,8.544980621E0,-3.913461914E0,1.023077670E1
4.934338667E0,4.661456451E0,7.999215546E0,-3.789070587E0,1.000368340E1
4.944268667E0,5.370980988E0,7.375911713E0,-3.899391174E0,9.922538077E0
4.954199667E0,5.665119324E0,6.703060913E0,-3.949237518E0,9.623984597E0
4.964130667E0,5.382806396E0,5.827232208E0,-3.981719971E0,8.876110288E0
4.974061667E0,4.723577271E0,5.187911682E0,-3.503165131E0,7.842115517E0
4.983991667E0,4.595294037E0,5.707181854E0,-2.787203979E0,7.839461590E0
4.993922667E0,4.459975433E0,6.179749146E0,-2.486928406E0,8.016576156E0
5.003853667E0,3.521576843E0,6.187532959E0,-2.541864166E0,7.559638948E0
5.013784667E0,2.167792053E0,6.030808868E0,-2.345322876E0,6.824259475E0
5.023714667E0,1.256038055E0,6.361920319E0,-2.126028900E0,6.824343237E0
5.033645667E0,1.134640503E-1,6.879992981E0,-2.375110931E0,7.279308308E0
5.043576667E0,-3.128494263E-1,7.479945374E0,-2.735112305E0,7.970464031E0
5.053507667E0,1.263672180E0,8.646619263E0,-2.833457794E0,9.186368985E0
5.063437667E0,3.051554260E0,9.603279877E0,-2.508333893E0,1.038396392E1
5.073368667E0,3.520079956E0,9.850116577E0,-1.773212585E0,1.060943176E1
5.083299667E0,3.046015778E0,9.847871246E0,-7.967930603E-1,1.033893899E1
5.093229667E0,2.036964111E0,9.905651093E0,1.200503540E-1,1.011363231E1
5.103160667E0,1.391057281E0,1.018796402E1,8.402027893E-1,1.031676267E1
5.113091667E0,9.526190186E-1,1.033720367E1,1.501976624E0,1.048909894E1
5.123022667E0,-2.483335876E-1,1.028361511E1,1.771266632E0,1.043799764E1
5.132952667E0,-2.067500610E0,1.047282166E1,1.269360352E0,1.075015478E1
5.142883667E0,-3.862268372E0,1.130239655E1,1.222956848E-1,1.194471602E1
5.152815042E0,-5.321134644E0,1.319715637E1,-1.415007477E0,1.429970826E1
5.162746042E0,-5.616470490E0,1.506736725E1,-2.229164429E0,1.623389881E1
5.172676042E0,-3.377725983E0,1.652847885E1,-1.833836517E0,1.696946087E1
5.182607042E0,1.314266968E-1,1.795127014E1,-1.830693054E0,1.804485549E1
5.192538042E0,2.811154175E0,1.823403214E1,-1.570983124E0,1.851622272E1
5.202469042E0,5.899082794E0,1.704430618E1,-4.111949158E-1,1.804097094E1
5.212399042E0,7.802524567E0,1.507619888E1,2.685415649E-1,1.697772885E1
5.222330042E0,8.118517456E0,1.180714691E1,1.185235291E0,1.437789368E1
5.232261042E0,8.127349091E0,8.252937927E0,1.190624084E0,1.164398443E1
5.242191042E0,8.818611603E0,6.109694824E0,3.222798157E-1,1.073313308E1
5.252122042E0,8.663983154E0,5.622607727E0,-2.731819153E-1,1.033213192E1
5.262053042E0,7.693700867E0,7.248825989E0,-8.475375366E-1,1.060456652E1
5.271984042E0,5.846841431E0,9.255552979E0,-2.384092255E0,1.120422740E1
5.281914042E0,3.605552216E0,9.227561188E0,-3.866609344E0,1.063478068E1
5.291845042E0,1.721719666E0,8.852141876E0,-4.553381195E0,1.010237669E1
5.301776042E0,1.113085327E0,8.201445007E0,-4.201762390E0,9.282104629E0
5.311707042E0,7.180567932E-1,8.175698547E0,-3.980223083E0,9.121393977E0
5.321637042E0,-1.724414062E-1,8.603508911E0,-3.575614471E0,9.318536391E0
5.331568042E0,-3.832031250E-2,8.659492493E0,-2.910098419E0,9.135477628E0
5.341499042E0,3.845503235E-1,8.184530182E0,-2.528541870E0,8.574843278E0
5.351430042E0,7.777825928E-1,7.440427551E0,-2.409239960E0,7.859347625E0
5.361360042E0,1.226699066E0,6.642736359E0,-2.485132141E0,7.197681480E0
5.371291042E0,1.729353790E0,6.120472412E0,-2.624492340E0,6.880320278E0
5.381222042E0,2.199675751E0,6.062991943E0,-2.786156158E0,7.025746284E0
5.391153042E0,2.454745331E0,5.966742096E0,-2.901566162E0,7.074381391E0
5.401083042E0,2.506238251E0,5.891448669E0,-2.930605774E0,7.041224879E0
5.411014042E0,2.555186462E0,6.011798401E0,-3.090473328E0,7.226459940E0
5.420945042E0,2.345472565E0,6.120622101E0,-3.359014893E0,7.365204512E0
5.430875042E0,2.011367340E0,6.101461945E0,-3.592080231E0,7.360467161E0
5.440806042E0,1.937570801E0,5.950426025E0,-3.875440979E0,7.360760373E0
5.450737042E0,2.073787537E0,5.673202515E0,-4.248165894E0,7.384628290E0
5.460668042E0,2.387984161E0,5.451064453E0,-4.589905243E0,7.515570648E0
5.470598042E0,2.934647369E0,5.066364441E0,-4.509672089E0,7.390354943E0
5.480529042E0,3.768263855E0,4.656367035E0,-4.161196747E0,7.293635912E0
5.490460042E0,5.079087982E0,5.501808929E0,-3.422632599E0,8.232949054E0
5.500391042E0,6.893015900E0,7.530091095E0,-2.630629578E0,1.054211326E1
5.510321042E0,9.189839630E0,9.292077026E0,-1.928439789E0,1.321040226E1
5.520252042E0,1.287128403E1,1.172227341E1,-2.163151703E0,1.754311465E1
5.530183042E0,1.380339569E1,1.286694305E1,-3.300785980E0,1.915690853E1
5.540113042E0,1.009710297E1,1.297786240E1,-4.312681732E0,1.699928306E1
5.550044042E0,8.192313995E0,1.295900162E1,-4.360731812E0,1.593943893E1
5.559975042E0,8.044421539E0,1.310180466E1,-4.281097412E0,1.595925431E1
5.569906042E0,7.947123871E0,1.281530045E1,-3.941603394E0,1.558604955E1
5.579836042E0,7.489226074E0,1.209544739E1,-2.897225189E0,1.451834248E1
5.589767042E0,7.016509094E0,1.184591629E1,-2.690056000E0,1.402831187E1
5.599698042E0,6.309379578E0,1.142678787E1,-3.496129761E0,1.351305573E1
5.609629042E0,5.824986877E0,1.116767670E1,-3.546724548E0,1.308536320E1
5.619559042E0,4.827012177E0,1.206071960E1,-3.030747528E0,1.333965646E1
5.629490042E0,2.463876343E0,1.340447525E1,-3.172353058E0,1.399337226E1
5.639421042E0,1.655557251E-1,1.487097565E1,-3.238216095E0,1.522036034E1
5.649352042E0,-2.076931000E0,1.598106720E1,-1.740879822E0,1.620922002E1
5.659282042E0,-4.136198730E0,1.566432587E1,-5.098397827E-1,1.620923136E1
5.669213042E0,-4.142635345E0,1.348395996E1,-7.511380005E-1,1.412596234E1
5.679144042E0,-2.752027130E0,1.064795746E1,-1.211430817E0,1.106436695E1
5.689074042E0,-1.437610474E0,8.258326721E0,-1.543290710E0,8.523404855E0
5.699005042E0,-4.150868225E-1,6.783144379E0,-1.343755646E0,6.927411058E0
5.708936042E0,-3.896397400E-1,6.162984009E0,-7.319778442E-1,6.218519324E0
5.718867042E0,-8.150550842E-1,5.754932556E0,-2.121089172E-1,5.816231917E0
5.728797042E0,-1.128353577E0,5.767356720E0,-4.385879517E-1,5.893042060E0
5.738728042E0,-1.145118713E0,6.539151764E0,-1.247056732E0,6.754772620E0
5.748659042E0,-1.123264160E0,7.796387329E0,-2.285746765E0,8.201830042E0
5.758590042E0,-1.304237823E0,8.909322968E0,-3.306174774E0,9.592072960E0
5.768520042E0,-1.459764404E0,1.032702484E1,-3.843557281E0,1.111536265E1
5.778451042E0,-1.251846771E0,1.176313843E1,-3.400927734E0,1.230873086E1
5.788382042E0,-1.709744568E0,1.188603287E1,-3.301384735E0,1.245392087E1
5.798313042E0,-1.508562927E0,1.064421524E1,-2.766846313E0,1.110092423E1
5.808243042E0,-7.400610352E-1,9.464518433E0,-2.786754913E0,9.893978090E0
5.818174042E0,-6.879693604E-1,8.828790436E0,-3.647614746E0,9.577365804E0
5.828105042E0,-8.719367981E-1,8.533454590E0,-3.780688019E0,9.374098512E0
5.838035042E0,-8.213420105E-1,8.293054504E0,-4.097279663E0,9.286390922E0
5.847966042E0,-4.472698975E-1,8.107889557E0,-4.352947998E0,9.213364190E0
5.857897042E0,-7.065307617E-2,8.132737885E0,-3.991150360E0,9.059563927E0
5.867828042E0,7.544311523E-2,8.112679596E0,-3.704496460E0,8.918775472E0
5.877758042E0,1.023870850E-1,8.066126404E0,-3.709885254E0,8.878971048E0
5.887689042E0,7.015910339E-1,8.483009491E0,-3.770808563E0,9.309816176E0
5.897620042E0,1.104253693E0,8.488997040E0,-3.419788513E0,9.218318742E0
5.907551042E0,9.002279663E-1,8.802445221E0,-3.635340271E0,9.566041561E0
5.917481042E0,8.140072632E-1,9.493258667E0,-3.875890045E0,1.028625741E1
5.927412042E0,1.544637909E0,9.998009033E0,-4.318818970E0,1.099992219E1
5.937343042E0,2.435734863E0,9.794132996E0,-5.115162964E0,1.131471332E1
5.947274042E0,3.366499329E0,8.934620361E0,-5.563181305E0,1.105032782E1
5.957204042E0,4.239483948E0,8.173602905E0,-5.086572418E0,1.051923132E1
5.967135042E0,4.751718750E0,7.754624176E0,-4.264931030E0,1.004503180E1
5.977066042E0,4.670587463E0,7.789950714E0,-3.731889496E0,9.819608882E0
5.986996042E0,4.335434418E0,8.241711273E0,-3.584446106E0,9.978479352E0
5.996927042E0,4.252357178E0,8.555309143E0,-3.792064362E0,1.027889139E1
6.006858042E0,4.240232391E0,8.294701080E0,-3.892355804E0,1.009614136E1
6.016789042E0,4.271816711E0,7.802075500E0,-3.778442688E0,9.664234542E0
6.026719042E0,4.125121765E0,7.324568481E0,-3.803440704E0,9.226705490E0
6.036650042E0,3.817062378E0,6.747368774E0,-3.932921448E0,8.692802867E0
6.046581042E0,3.280428314E0,6.078409882E0,-4.147275696E0,8.056560824E0
6.056512042E0,2.668500824E0,5.612877960E0,-4.259242859E0,7.534351025E0
6.066442042E0,2.154619446E0,5.417983246E0,-4.148622894E0,7.155976476E0
6.076373042E0,2.086361389E0,5.501958618E0,-3.852388916E0,7.033160942E0
6.086304042E0,2.414778442E0,5.922583923E0,-3.661984863E0,7.370094192E0
6.096235042E0,2.042801971E0,6.673871613E0,-3.607049103E0,7.856488110E0
6.106165042E0,9.276210022E-1,7.818241882E0,-3.684138794E0,8.692425755E0
6.116096042E0,2.046244812E-1,9.343120880E0,-3.615581360E0,1.002038959E1
6.126027042E0,-3.823049927E-1,1.094613739E1,-3.808829498E0,1.159617450E1
6.135957042E0,-5.876779175E-1,1.201730988E1,-4.596940613E0,1.287994429E1
6.145888042E0,-8.592132568E-2,1.223480759E1,-5.601351929E0,1.345633838E1
6.155818958E0,1.104253693E0,1.173230255E1,-5.899382172E0,1.317835382E1
6.165749958E0,1.920805664E0,1.073807007E1,-4.662055206E0,1.186298453E1
6.175679958E0,2.386187897E0,9.006620636E0,-3.033741302E0,9.798810859E0
6.185610958E0,2.734064484E0,7.287146301E0,-1.891915741E0,8.009803680E0
6.195541958E0,2.831661530E0,6.422394562E0,-1.257085876E0,7.130618755E0
6.205472958E0,3.163371735E0,6.171965332E0,-6.475534058E-1,6.965586996E0
6.215402958E0,3.305725708E0,5.997278595E0,1.097218323E-1,6.848883988E0
6.225333958E0,3.455414429E0,6.033652954E0,2.983296204E-1,6.959443757E0
6.235264958E0,3.490441589E0,6.953340454E0,-2.480342102E-1,7.784192118E0
6.245194958E0,2.979254608E0,9.437574463E0,-1.084794159E0,9.955930300E0
6.255125958E0,4.080364838E0,1.334385132E1,-6.140231323E-1,1.396727495E1
6.265056958E0,6.547234955E0,1.850616623E1,3.046165466E-1,1.963255626E1
6.274987958E0,8.168214111E0,2.236409363E1,-8.116122437E-1,2.382291166E1
6.284917958E0,9.267528076E0,2.206696152E1,-1.822460175E0,2.400331703E1
6.294848958E0,9.581724701E0,1.797551971E1,-4.141886902E-1,2.037401064E1
6.304779958E0,1.069885162E1,1.443882431E1,2.379451904E0,1.812751679E1
6.314710958E0,1.022808060E1,1.078941330E1,2.580184479E0,1.508914921E1
6.324640958E0,9.495354309E0,8.160130920E0,1.820813599E0,1.265167389E1
6.334571958E0,9.065747681E0,7.053781586E0,7.914042664E-1,1.151390187E1
6.344502958E0,7.643704834E0,6.693630524E0,-3.478765869E-1,1.016621519E1
6.354433958E0,5.479056244E0,6.684798889E0,-2.056872711E0,8.884667628E0
6.364363958E0,4.033961334E0,6.609505463E0,-3.366199951E0,8.443323316E0
6.374294958E0,2.879861298E0,6.781048737E0,-4.393813019E0,8.577984373E0
6.384225958E0,1.309626617E0,6.905739441E0,-4.800966339E0,8.511970212E0
6.394155958E0,1.103205872E-1,7.312443695E0,-4.839286652E0,8.769418380E0
6.404086958E0,-6.917115784E-1,7.718399506E0,-4.574038239E0,8.998554420E0
6.414017958E0,-8.867559814E-1,7.731422424E0,-4.100722504E0,8.796428476E0
6.423948958E0,-5.087919617E-1,7.298073578E0,-3.585643616E0,8.147244157E0
6.433878958E0,-1.651066589E-1,7.050787811E0,-3.136128387E0,7.718560114E0
6.443809958E0,4.661306763E-1,7.122937775E0,-2.907254333E0,7.707505959E0
6.453740958E0,1.144969025E0,7.041806488E0,-2.711910553E0,7.632329365E0
6.463671958E0,1.629361725E0,6.804998932E0,-2.550695801E0,7.447743226E0
6.473601958E0,2.015109558E0,6.584956512E0,-2.486030273E0,7.321384112E0
6.483532958E0,2.224075012E0,6.444099426E0,-2.547402649E0,7.277512441E0
6.493463958E0,2.207758942E0,6.532565460E0,-2.656376038E0,7.389515863E0
6.503393958E0,1.970951385E0,6.572382660E0,-2.877765656E0,7.440591264E0
6.513324958E0,1.529519348E0,6.518045654E0,-3.205583954E0,7.422945310E0
6.523255958E0,1.266815643E0,6.487060089E0,-3.490441589E0,7.474620590E0
6.533186958E0,1.260379028E0,6.577172699E0,-3.641477509E0,7.622867863E0
6.543116958E0,1.507814484E0,6.782246246E0,-3.946543121E0,7.990467525E0
6.553047958E0,1.982178040E0,6.859335938E0,-4.325554962E0,8.348050372E0
6.562978958E0,2.702929230E0,7.029232635E0,-4.640350342E0,8.845834565E0
6.572909958E0,3.419339447E0,7.040608978E0,-4.769531708E0,9.165723635E0
6.582839958E0,4.269721069E0,6.815626831E0,-4.589905243E0,9.260157518E0
6.592770958E0,5.477259979E0,6.897955627E0,-4.044140167E0,9.692122493E0
6.602701958E0,7.309150543E0,7.439080353E0,-3.315006409E0,1.094316525E1
6.612632958E0,9.643097076E0,8.578061829E0,-2.741997986E0,1.319435557E1
6.622562958E0,1.155477173E1,9.542655945E0,-3.067720642E0,1.529659904E1
6.632493958E0,1.143307480E1,1.083431992E1,-4.674479370E0,1.643010787E1
6.642424958E0,9.877210236E0,1.216086136E1,-6.048921204E0,1.679390600E1
6.652354958E0,8.376730499E0,1.150806885E1,-6.642586670E0,1.570761663E1
6.662285958E0,6.954238586E0,1.016880386E1,-7.338489532E0,1.433943635E1
6.672216958E0,6.419700165E0,1.013811768E1,-6.930887146E0,1.385753141E1
6.682147958E0,6.184539185E0,1.106214615E1,-6.271658020E0,1.414048431E1
6.692077958E0,5.363197174E0,1.256082962E1,-5.725443878E0,1.480942377E1
6.702008958E0,4.755460968E0,1.553888672E1,-2.867586823E0,1.650134733E1
6.711939958E0,4.013603668E0,1.784993088E1,5.716612244E-1,1.830453068E1
6.721870958E0,2.412233734E0,1.879835861E1,2.559976501E0,1.912460817E1
6.731800958E0,-1.827699280E-1,2.059013260E1,2.884501648E0,2.079200123E1
6.741731958E0,-2.702929230E0,1.954680222E1,1.741478577E0,1.980949396E1
6.751662958E0,-4.724625092E0,1.584305420E1,7.914042664E-1,1.655145822E1
6.761593958E0,-5.885760498E0,1.162407761E1,-9.316625977E-1,1.306251706E1
6.771523958E0,-5.713019714E0,6.779701538E0,-2.590812378E0,9.236625790E0
6.781454958E0,-4.221670990E0,2.845881958E0,-2.772534485E0,5.797283634E0
6.791385958E0,-3.280877380E0,1.114731903E0,-3.099005585E0,4.648722321E0
6.801315958E0,-3.137325897E0,2.193538513E0,-3.539689178E0,5.213810936E0
6.811246958E0,-2.606829071E0,4.249213715E0,-3.674858093E0,6.193218630E0
6.821177958E0,-2.583327942E0,5.821993103E0,-3.572770386E0,7.303004531E0
6.831108958E0,-2.645897827E0,7.430099030E0,-4.181704102E0,8.927138180E0
6.841038958E0,-2.125130768E0,9.413175201E0,-4.726720734E0,1.074550776E1
6.850969958E0,-2.807861023E0,1.115689911E1,-5.023403778E0,1.255368738E1
6.860900958E0,-3.515738983E0,1.257220596E1,-4.780608673E0,1.390233803E1
6.870831958E0,-4.366569672E0,1.318398376E1,-4.591252441E0,1.462750688E1
6.880761958E0,-4.571044464E0,1.256487122E1,-3.988605652E0,1.395275640E1
6.890692958E0,-3.792363739E0,1.117635864E1,-4.368964691E0,1.258494607E1
6.900623958E0,-2.954106903E0,9.644144897E0,-5.226082306E0,1.135993903E1
6.910553958E0,-1.686991882E0,8.160430298E0,-6.090983734E0,1.032175601E1
6.920484958E0,9.939331055E-2,6.658753052E0,-6.942862244E0,9.620405780E0
6.930415958E0,2.427951050E0,6.086044006E0,-6.583309937E0,9.288425468E0
6.940346958E0,3.487298126E0,6.237678680E0,-6.539900208E0,9.687114032E0
6.950276958E0,4.780309296E0,7.005881195E0,-6.321803741E0,1.057822910E1
6.960207958E0,5.917045441E0,7.457342377E0,-5.769751740E0,1.113164036E1
6.970138958E0,6.083948364E0,8.029302979E0,-4.997807007E0,1.124554173E1
6.980069958E0,5.624853058E0,8.962911530E0,-4.289030914E0,1.141790441E1
6.989999958E0,4.827610931E0,1.003153931E1,-3.866908722E0,1.178518524E1
6.999930958E0,4.225263519E0,1.039573196E1,-3.680845642E0,1.180985688E1
7.009861958E0,4.040996704E0,9.996961212E0,-3.758234711E0,1.141898489E1
7.019791958E0,4.155807953E0,9.170380096E0,-3.665128326E0,1.071446576E1
7.029722958E0,4.465962982E0,8.262068939E0,-3.390000458E0,9.984924217E0
7.039653958E0,4.748425598E0,7.804021454E0,-3.114573212E0,9.651469463E0
7.049584958E0,4.743635559E0,7.666756897E0,-2.703378296E0,9.412199203E0
7.059514958E0,4.638254700E0,7.956853638E0,-2.518812103E0,9.548263763E0
7.069445958E0,4.203858032E0,8.294701080E0,-2.505489807E0,9.630782291E0
7.079376958E0,3.650309143E0,8.537945251E0,-2.690205688E0,9.667392234E0
7.089307958E0,3.160078583E0,8.640182648E0,-3.126398621E0,9.716646601E0
7.099237958E0,2.429447937E0,8.706494751E0,-3.761677551E0,9.790581501E0
7.109168958E0,2.058070221E0,8.636440430E0,-4.095333710E0,9.777295870E0
7.119099958E0,1.958227844E0,8.254285126E0,-4.170028381E0,9.452884001E0
7.129029958E0,2.074086914E0,7.741451569E0,-4.033661957E0,8.972309496E0
7.138960958E0,1.863923950E0,7.270231476E0,-3.725303192E0,8.379043029E0
7.148891958E0,1.742077332E0,7.169940033E0,-3.273093567E0,8.071927589E0
7.158821917E0,1.717678070E0,7.949069824E0,-2.692001953E0,8.566504745E0
7.168751917E0,1.637893982E0,9.266929321E0,-2.441273346E0,9.722062090E0
7.178682917E0,1.518592072E0,1.096350128E1,-3.401077423E0,1.157893820E1
7.188613917E0,1.292262726E0,1.194486053E1,-5.074747009E0,1.304234233E1
7.198544917E0,1.664987640E0,1.154788605E1,-5.822442169E0,1.303942824E1
7.208474917E0,2.829715576E0,1.051129166E1,-4.718038788E0,1.186399733E1
7.218405917E0,3.880380707E0,9.813891907E0,-3.355721741E0,1.107387453E1
7.228336917E0,4.819228363E0,9.427096252E0,-2.019600220E0,1.077839927E1
7.238266917E0,5.365891571E0,8.823850708E0,-7.427554321E-1,1.035397601E1
7.248197917E0,5.310656433E0,7.997568970E0,-4.849914551E-2,9.600340272E0
7.258128917E0,5.035079498E0,7.368277588E0,4.219725037E-1,8.934293534E0
7.268059917E0,4.113296356E0,6.648424530E0,7.708969116E-1,7.855891910E0
7.277989917E0,3.045417023E0,5.905220032E0,8.204438782E-1,6.694723043E0
7.287920917E0,1.965263214E0,5.124593353E0,3.433859253E-1,5.499239077E0
7.297851917E0,1.134341125E0,5.425767059E0,-4.885839844E-1,5.564565776E0
7.307782917E0,2.089654541E-1,7.425308990E0,-1.592089233E0,7.596948617E0
7.317712917E0,-1.945953369E-3,9.852661285E0,-1.794618073E0,1.001476871E1
7.327643917E0,2.064207458E0,1.293026138E1,-1.866468658E0,1.322634935E1
7.337574917E0,4.346960449E0,1.658580963E1,-2.470762024E0,1.732310051E1
7.347504917E0,6.411467285E0,1.875659546E1,-2.430495758E0,1.997058075E1
7.357435917E0,7.337142334E0,1.891840897E1,-1.075513458E0,2.031985690E1
7.367366917E0,7.000492401E0,1.765413803E1,1.091230774E0,1.902278287E1
7.377297917E0,5.445975037E0,1.486154526E1,1.550625458E0,1.590372946E1
7.387227917E0,3.693569183E0,9.893825684E0,1.109941864E0,1.061895526E1
7.397158917E0,3.933071136E0,6.261479187E0,-4.535568237E-1,7.408163333E0
7.407089917E0,5.206473083E0,5.439538422E0,-1.655407562E0,7.709495081E0
7.417020917E0,4.913083191E0,6.474785614E0,-1.936672668E0,8.355353746E0
7.426950917E0,4.335883484E0,8.076155548E0,-2.337838440E0,9.459897600E0
7.436881917E0,3.610491943E0,7.777975616E0,-2.896027679E0,9.050941005E0
7.446812917E0,2.872825928E0,6.729705505E0,-3.490291901E0,8.107046475E0
7.456743917E0,2.402503967E0,6.381230164E0,-3.598965912E0,7.710037571E0
7.466673917E0,2.056273956E0,6.430627441E0,-3.278781738E0,7.505440797E0
7.476604917E0,1.813329163E0,6.731202393E0,-2.909050598E0,7.553795317E0
7.486535917E0,1.621577911E0,6.987469482E0,-2.650388489E0,7.647143508E0
7.496465917E0,1.507365417E0,7.184310150E0,-2.478396149E0,7.747832620E0
7.506396917E0,1.467847595E0,7.169940033E0,-2.314037933E0,7.675766294E0
7.516327917E0,1.432670746E0,6.981931000E0,-2.352507935E0,7.505611203E0
7.526258917E0,1.369502106E0,7.019053802E0,-2.665507050E0,7.632010229E0
7.536188917E0,1.360520782E0,7.308102722E0,-3.063379669E0,8.040129178E0
7.546119917E0,1.407223663E0,7.413932648E0,-3.315455475E0,8.242506946E0
7.556050917E0,1.318607941E0,7.443271637E0,-3.497776337E0,8.329193170E0
7.565981917E0,1.235979767E0,7.688162384E0,-3.740870819E0,8.638842591E0
7.575911917E0,1.459165649E0,8.059839478E0,-4.093986511E0,9.157013834E0
7.585842917E0,1.916614380E0,8.227341156E0,-4.339026947E0,9.496826208E0
7.595773917E0,2.840642853E0,8.214916992E0,-4.391268311E0,9.738447021E0
7.605704917E0,4.046834564E0,7.804171143E0,-4.243675232E0,9.761697429E0
7.615634917E0,5.300776978E0,7.201973419E0,-3.735332336E0,9.691200409E0
7.625565917E0,6.424340515E0,6.985523529E0,-2.963088226E0,9.942312702E0
7.635496917E0,7.541916504E0,8.258027344E0,-2.216590576E0,1.140126282E1
7.645426917E0,9.024283905E0,9.607321472E0,-1.969604187E0,1.332732781E1
7.655357917E0,1.012225067E1,9.733059998E0,-2.789598999E0,1.431692279E1
7.665288917E0,9.983040161E0,1.021011795E1,-4.885241089E0,1.509215624E1
7.675219917E0,8.607101440E0,1.043779449E1,-6.657256165E0,1.507809036E1
7.685149917E0,7.955506439E0,9.627379761E0,-7.279212799E0,1.445556857E1
7.695080917E0,7.960595856E0,8.620274048E0,-7.425758057E0,1.388603953E1
7.705011917E0,7.294780426E0,8.108039246E0,-6.895859985E0,1.290375941E1
7.714942917E0,5.477259979E0,8.744515686E0,-5.633984070E0,1.175621997E1
7.724872917E0,3.441942444E0,9.688303070E0,-4.461023254E0,1.120762743E1
7.734803917E0,1.827100525E0,1.049632278E1,-3.142115936E0,1.110783421E1
7.744734917E0,9.798623657E-1,1.228031296E1,-1.370549927E0,1.239534686E1
7.754664917E0,6.307882690E-1,1.480795670E1,5.179229736E-2,1.482147623E1
7.764595917E0,-4.326004028E-2,1.628029495E1,4.215234375E-1,1.628580846E1
7.774526917E0,-4.888833618E-1,1.703292984E1,3.188369751E-2,1.703997425E1
7.784457917E0,-8.569679260E-1,1.578123276E1,-6.334826660E-1,1.581717426E1
7.794387917E0,-1.008303223E0,1.321227493E1,-1.763931885E0,1.336758542E1
7.804318917E0,-3.076103210E-1,1.061083466E1,-3.036435699E0,1.104103156E1
7.814249917E0,6.173162842E-1,8.609047394E0,-3.212170258E0,9.209495870E0
7.824180917E0,1.334774323E0,7.371870117E0,-2.606679382E0,7.932267577E0
7.834110917E0,1.203497314E0,6.709497528E0,-2.070494385E0,7.124093617E0
7.844041917E0,6.388714600E-1,6.672225037E0,-1.930236053E0,6.975138343E0
7.853972917E0,1.025367737E-1,7.120991821E0,-2.173330536E0,7.445965614E0
7.863902917E0,-2.951861572E-1,7.957153015E0,-2.483784943E0,8.341019519E0
7.873833917E0,-6.165678406E-1,9.029822388E0,-2.686313782E0,9.441087331E0
7.883764917E0,-8.243357849E-1,1.039213943E1,-3.097359009E0,1.087518847E1
7.893695917E0,-5.661227417E-1,1.149354904E1,-3.582051086E0,1.205210581E1
7.903625917E0,-1.302291870E-2,1.149250122E1,-3.925137634E0,1.214431799E1
7.913556917E0,8.428971863E-1,1.046653473E1,-3.805686035E0,1.116879900E1
7.923487917E0,1.427880707E0,8.934620361E0,-3.796105957E0,9.812069341E0
7.933418917E0,1.168470154E0,7.758965149E0,-3.872596893E0,8.750078250E0
7.943348917E0,6.655160522E-1,7.443870392E0,-3.608845367E0,8.299270023E0
7.953279917E0,5.465135193E-1,7.547155609E0,-3.367397461E0,8.282366840E0
7.963210917E0,2.573149109E-1,7.826175385E0,-3.158432007E0,8.443395339E0
7.973140917E0,2.576142883E-1,8.335416412E0,-3.029250641E0,8.872535789E0
7.983071917E0,9.198371887E-1,8.222551117E0,-3.133284302E0,8.847254819E0
7.993002917E0,1.237027588E0,8.095914459E0,-3.350931702E0,8.848887583E0
8.002933917E0,1.451681213E0,8.460406494E0,-3.382366333E0,9.226389240E0
8.012863917E0,1.567989349E0,9.073830872E0,-3.242257690E0,9.762439870E0
8.022794917E0,1.783241730E0,9.457333374E0,-3.056493988E0,1.009768593E1
8.032725917E0,1.801803131E0,9.154513092E0,-2.963686981E0,9.789537527E0
8.042656917E0,1.763033752E0,8.825497284E0,-2.955005035E0,9.472578587E0
8.052586917E0,1.855092316E0,8.652606812E0,-2.792592773E0,9.279415204E0
8.062517917E0,1.789229279E0,8.593779144E0,-2.892734528E0,9.242418214E0
8.072448917E0,1.855391693E0,8.604407043E0,-3.138822784E0,9.345079314E0
8.082379917E0,2.186203766E0,8.511300659E0,-3.387455750E0,9.417886295E0
8.092309917E0,2.677631836E0,8.418942719E0,-3.513643341E0,9.507575836E0
8.102240917E0,3.085533600E0,8.309370575E0,-3.561992798E0,9.552693319E0
8.112171917E0,3.356769562E0,8.306975555E0,-3.655997314E0,9.676779481E0
8.122101917E0,3.405568085E0,8.500223694E0,-3.931274872E0,9.965270641E0
8.132032917E0,3.303480377E0,8.710835724E0,-4.295617218E0,1.025884832E1
8.141963917E0,3.050506439E0,8.889863434E0,-4.526886292E0,1.043206408E1
8.151894917E0,2.568658447E0,8.729097748E0,-4.538711700E0,1.016833603E1
8.161825333E0,1.848206635E0,8.243806915E0,-4.296665039E0,9.478267282E0
8.171756333E0,1.399140472E0,7.723039856E0,-3.719764709E0,8.685596593E0
8.181687333E0,1.322649536E0,7.389383698E0,-2.901566162E0,8.048073025E0
8.191618333E0,1.505419464E0,7.146438904E0,-2.313738556E0,7.661022313E0
8.201548333E0,1.861678619E0,7.061565399E0,-2.035916290E0,7.581326290E0
8.211479333E0,2.207609253E0,7.431146851E0,-2.391427002E0,8.112607795E0
8.221410333E0,2.291584625E0,8.270002441E0,-3.604953461E0,9.308060482E0
8.231340333E0,2.151326294E0,9.192384338E0,-5.309458923E0,1.083136597E1
8.241271333E0,2.363285522E0,9.779014435E0,-6.143973541E0,1.178824214E1
8.251202333E0,3.340154114E0,1.001492386E1,-5.315147095E0,1.181973426E1
8.261133333E0,3.814367981E0,9.815089417E0,-3.961511993E0,1.125073156E1
8.271063333E0,3.718567200E0,9.233099670E0,-2.815794525E0,1.034439802E1
8.280994333E0,3.468437347E0,8.702453156E0,-1.601669312E0,9.504109277E0
8.290925333E0,3.160078583E0,8.001161499E0,-5.144801331E-1,8.617967962E0
8.300856333E0,2.813698883E0,7.469018097E0,2.131567383E-1,7.984270069E0
8.310786333E0,2.247276764E0,7.272476807E0,7.123686218E-1,7.645040275E0
8.320717333E0,1.318158875E0,7.484735413E0,7.960446167E-1,7.641498155E0
8.330648333E0,-5.628295898E-2,7.844587097E0,4.086502075E-1,7.855425481E0
8.340578333E0,-1.175954590E0,8.314459991E0,3.360511780E-1,8.403930303E0
8.350509333E0,-1.390907593E0,9.588011627E0,-1.011895752E-1,9.688902426E0
8.360440333E0,-1.076112213E0,1.249017654E1,-6.629713440E-1,1.255396585E1
8.370371333E0,-2.517764282E-1,1.522588760E1,-1.415456543E0,1.529361180E1
8.380301333E0,1.858535156E0,1.710986984E1,-2.906356201E0,1.745418876E1
8.390232333E0,5.669011230E0,1.874147690E1,-3.276686096E0,1.985238818E1
8.400163333E0,8.355025635E0,1.877665375E1,-1.519041138E0,2.060768462E1
8.410094333E0,7.286248169E0,1.661380142E1,7.824229431E-1,1.815819363E1
8.420024333E0,5.638175354E0,1.306513092E1,1.331780548E0,1.429196651E1
8.429955333E0,4.907544708E0,9.191186829E0,9.906399536E-1,1.046629246E1
8.439886333E0,5.027445374E0,6.055208130E0,-2.302212524E-1,7.873611262E0
8.449816333E0,5.693709869E0,5.451962585E0,-1.550326080E0,8.034036287E0
8.459747333E0,5.280569000E0,6.199058990E0,-2.288141785E0,8.458624839E0
8.469678333E0,4.073479156E0,6.344556427E0,-2.359243927E0,7.900168391E0
8.479609333E0,3.508104858E0,6.603966980E0,-2.694696350E0,7.948620509E0
8.489539333E0,3.305576019E0,7.282955017E0,-3.356320496E0,8.673704737E0
8.499470333E0,2.284399567E0,7.304809570E0,-3.317401428E0,8.341695060E0
8.509401333E0,1.974843292E0,7.368427277E0,-2.915487213E0,8.166626736E0
8.519332333E0,1.753004608E0,7.656578064E0,-2.508782959E0,8.245617305E0
8.529262333E0,1.590592346E0,7.639064484E0,-2.393971710E0,8.161886470E0
8.539193333E0,1.661993866E0,7.401957550E0,-2.513872375E0,7.991918012E0
8.549124333E0,1.635498962E0,7.146289215E0,-2.573149109E0,7.769517536E0
8.559055333E0,1.405577087E0,6.961124268E0,-2.856210480E0,7.654465123E0
8.568985333E0,1.496288452E0,6.829847260E0,-3.062481537E0,7.633117704E0
8.578916333E0,1.736389160E0,6.876699829E0,-3.415148163E0,7.871930184E0
8.588847333E0,1.522783356E0,6.955735474E0,-3.925437012E0,8.130816740E0
8.598777333E0,1.420545959E0,7.188351746E0,-4.267924805E0,8.479713072E0
8.608708333E0,1.370400238E0,7.501500549E0,-4.500990143E0,8.854909348E0
8.618639333E0,1.467398529E0,7.702981567E0,-4.752167816E0,9.169093871E0
8.628570333E0,1.664538574E0,7.513924713E0,-4.843028870E0,9.093111783E0
8.638500333E0,2.120490417E0,6.859785004E0,-4.785698090E0,8.628791115E0
8.648431333E0,2.876268768E0,6.115532684E0,-4.748575287E0,8.259638569E0
8.658362333E0,3.588787079E0,4.921914825E0,-4.313579865E0,7.464021000E0
8.668293333E0,4.392016754E0,3.838168488E0,-3.654799805E0,6.883233987E0
8.678223333E0,5.269192657E0,4.484823761E0,-2.999013519E0,7.541360455E0
8.688154333E0,7.038513336E0,7.816894684E0,-2.270328827E0,1.076098999E1
8.698085333E0,9.809251556E0,1.094598770E1,-2.071093140E0,1.484336517E1
8.708015333E0,1.018901184E1,1.230890350E1,-2.728226624E0,1.621012919E1
8.717946333E0,7.428901520E0,1.214095276E1,-4.135001221E0,1.482192790E1
8.727877333E0,6.164929962E0,1.131018036E1,-5.100044403E0,1.385413274E1
8.737808333E0,6.305787048E0,1.085003723E1,-6.039490814E0,1.392701359E1
8.747738333E0,6.579717407E0,1.051263885E1,-6.843618622E0,1.416486402E1
8.757669333E0,6.973997498E0,9.823471985E0,-6.162085876E0,1.353176061E1
8.767600333E0,7.085365906E0,1.017838394E1,-4.605472870E0,1.322922107E1
8.777531333E0,6.396648102E0,1.045695465E1,-3.638483734E0,1.278685150E1
8.787461333E0,5.634133759E0,1.168829407E1,-2.492017822E0,1.321248781E1
8.797392333E0,4.688250732E0,1.463102463E1,-9.012757874E-1,1.539022010E1
8.807323333E0,2.346520386E0,1.756686951E1,-2.011816406E-1,1.772403837E1
8.817253333E0,1.420545959E-1,1.771850418E1,1.707948303E-1,1.771989675E1
8.827184333E0,-3.989204407E-1,1.407972107E1,-3.064128113E-1,1.408870369E1
8.837115333E0,-1.179547119E0,1.105226669E1,-1.355431366E0,1.119737133E1
8.847046333E0,-1.967957611E0,9.188642120E0,-2.334694977E0,9.682706327E0
8.856976333E0,-1.536704407E0,8.375083923E0,-2.588267670E0,8.899585422E0
8.866907333E0,2.186952209E-1,8.770860901E0,-2.662363586E0,9.168642670E0
8.876838333E0,9.180409241E-1,9.170080719E0,-1.655557251E0,9.363442174E0
8.886769333E0,1.214873657E0,9.128317566E0,-6.617738342E-1,9.232553503E0
8.896699333E0,7.174580383E-1,9.296118622E0,-5.986051941E-1,9.342959683E0
8.906630333E0,-1.210981750E-1,9.970316620E0,-1.290466461E0,1.005421215E1
8.916561333E0,-8.008346558E-1,1.118758530E1,-2.055675201E0,1.140303475E1
8.926491333E0,-1.778601379E0,1.193273575E1,-2.650687866E0,1.235231766E1
8.936422333E0,-1.885179749E0,1.165820663E1,-3.082090759E0,1.220520250E1
8.946353333E0,-1.776954803E0,1.055530014E1,-3.369493103E0,1.122164931E1
8.956284333E0,-2.002685394E0,8.405171356E0,-3.676055603E0,9.389943510E0
8.966214333E0,-8.328680420E-1,6.943460999E0,-3.216511230E0,7.697484284E0
8.976145333E0,-5.336402893E-1,6.609505463E0,-2.941233673E0,7.254046453E0
8.986076333E0,-7.457492065E-1,6.940167847E0,-3.011437683E0,7.602027923E0
8.996007333E0,-8.421487427E-1,7.485783234E0,-3.446283417E0,8.283902131E0
9.005937333E0,-5.863307190E-1,8.169112244E0,-3.595972137E0,8.944785865E0
9.015868333E0,-4.700225830E-1,8.607700195E0,-3.262315979E0,9.217164934E0
9.025799333E0,2.409988403E-2,9.057814178E0,-3.008144531E0,9.544292117E0
9.035729333E0,1.294957123E0,8.809181213E0,-1.866169281E0,9.097316933E0
9.045660333E0,1.862876129E0,8.389454041E0,-1.677860870E0,8.756052973E0
9.055591333E0,2.013163605E0,8.640032959E0,-1.894011383E0,9.071398809E0
9.065522333E0,2.036065979E0,8.894653473E0,-2.117646332E0,9.367222164E0
9.075452333E0,2.093097382E0,9.015152893E0,-2.435285797E0,9.569987213E0
9.085383333E0,2.439776459E0,9.025481415E0,-2.609074402E0,9.706652006E0
9.095314333E0,2.792742462E0,9.075028381E0,-2.957549744E0,9.944981200E0
9.105245333E0,3.078049164E0,8.997339935E0,-3.356320496E0,1.008421538E1
9.115175333E0,3.287014618E0,8.827443237E0,-3.430865479E0,1.002492180E1
9.125106333E0,3.432811432E0,8.583750000E0,-3.284619598E0,9.810896202E0
9.135037333E0,3.384461975E0,8.540489960E0,-3.279829559E0,9.754580132E0
9.144967333E0,3.201991425E0,8.579259338E0,-3.362008667E0,9.754975251E0
9.154898333E0,2.830763397E0,8.699758759E0,-3.567381592E0,9.819635191E0
9.164829458E0,2.514171753E0,8.958570557E0,-3.895798645E0,1.008733330E1
9.174760458E0,2.422562256E0,8.926686859E0,-4.270469513E0,1.018780919E1
9.184690458E0,2.590213623E0,8.539891205E0,-4.799918518E0,1.013302355E1
9.194621458E0,2.817590790E0,7.772137756E0,-5.274282074E0,9.806273225E0
9.204552458E0,2.858755188E0,7.036567383E0,-5.231471100E0,9.222475352E0
9.214482458E0,2.532284088E0,6.746021576E0,-4.615951080E0,8.557352054E0
9.224413458E0,2.234852600E0,6.902296600E0,-3.830234985E0,8.204082188E0
9.234344458E0,2.186203766E0,7.187453613E0,-3.036735077E0,8.103131264E0
9.244275458E0,1.761985931E0,7.381300507E0,-2.408042450E0,7.961586527E0
9.254205458E0,1.372046814E0,7.918233948E0,-2.445764008E0,8.400160885E0
9.264136458E0,9.846524048E-1,8.970695343E0,-3.236419830E0,9.587352534E0
9.274067458E0,3.592529297E-1,9.961634674E0,-4.332740021E0,1.086903235E1
9.283998458E0,4.571493530E-1,1.029514114E1,-4.871769104E0,1.139881796E1
9.293928458E0,1.943408661E0,1.009904892E1,-4.415517883E0,1.119215906E1
9.303859458E0,3.287164307E0,9.812095642E0,-3.501817932E0,1.092453198E1
9.313790458E0,3.539838867E0,9.272916870E0,-2.228715363E0,1.017273899E1
9.323721458E0,3.310216370E0,8.392447815E0,-8.779243469E-1,9.064296106E0
9.333651458E0,2.868035889E0,7.534132690E0,2.016307068E-1,8.064083345E0
9.343582458E0,2.398911438E0,6.751859436E0,1.019080811E0,7.237465553E0
9.353513458E0,2.271526337E0,6.177952881E0,1.504072266E0,6.751975050E0
9.363443458E0,1.748364258E0,6.118825836E0,1.621877289E0,6.567137362E0
9.373374458E0,9.005273438E-1,6.371201019E0,1.216370544E0,6.548489080E0
9.383305458E0,2.544708252E-2,7.293732605E0,4.287084961E-1,7.306365296E0
9.393236458E0,-4.526586914E-1,9.248218231E0,2.299218750E-1,9.262143619E0
9.403166458E0,-4.614903259E-1,1.279673904E1,-9.129515076E-1,1.283756145E1
9.413097458E0,9.220825195E-1,1.750938904E1,-2.900069275E0,1.777186941E1
9.423028458E0,5.112019501E0,2.183898560E1,-3.737278290E0,2.273854182E1
9.432958458E0,9.307345276E0,2.402863220E1,-3.637136536E0,2.602365470E1
9.442889458E0,1.243164825E1,2.193313980E1,-1.232087860E0,2.524136566E1
9.452820458E0,1.095362183E1,1.693054276E1,1.814227295E0,2.024639548E1
9.462751458E0,8.550070038E0,1.203287750E1,3.158432007E0,1.509534800E1
9.472681458E0,7.467521210E0,7.655979309E0,2.041604462E0,1.088788506E1
9.482612458E0,5.931116180E0,3.594475250E0,-2.782713318E-1,6.940880809E0
9.492543458E0,6.005212097E0,2.513722687E0,-1.333127747E0,6.645194028E0
9.502474458E0,6.275549927E0,4.226760406E0,-1.954485626E0,7.814604563E0
9.512404458E0,4.797224121E0,5.859864349E0,-2.265987854E0,7.904813117E0
9.522335458E0,2.697690125E0,7.220684509E0,-3.512894897E0,8.470905934E0
9.532266458E0,1.325493622E0,7.335046692E0,-4.524940338E0,8.719800937E0
9.542196458E0,9.418414307E-1,7.109615479E0,-3.959116974E0,8.191965866E0
9.552127458E0,5.628295898E-1,7.351512451E0,-3.042872314E0,7.976251274E0
9.562058458E0,3.546125793E-1,7.636968842E0,-2.623145142E0,8.082693462E0
9.571989458E0,3.360511780E-1,7.733368378E0,-2.439028015E0,8.115834801E0
9.581919458E0,5.203179932E-1,7.842192078E0,-2.235002289E0,8.171042934E0
9.591850458E0,8.809181213E-1,7.760611725E0,-2.140698395E0,8.098499904E0
9.601781458E0,1.190474396E0,7.172185364E0,-2.177970886E0,7.589534199E0
9.611712458E0,1.490450592E0,6.703659668E0,-2.482737122E0,7.302361230E0
9.621642458E0,1.790127411E0,6.415658569E0,-2.780767365E0,7.217887375E0
9.631573458E0,1.993404694E0,6.228397980E0,-2.995570679E0,7.193055495E0
9.641504458E0,2.092199249E0,6.118077393E0,-3.274440765E0,7.247767312E0
9.651434458E0,2.138602753E0,6.093977509E0,-3.604055328E0,7.395904165E0
9.661365458E0,2.220033417E0,6.195167084E0,-3.862867126E0,7.630883697E0
9.671296458E0,2.540966034E0,6.309080200E0,-4.094585266E0,7.938931279E0
9.681227458E0,3.150199127E0,6.353687439E0,-4.301754456E0,8.294467434E0
9.691157458E0,3.991749115E0,6.387068024E0,-4.525988159E0,8.787108043E0
9.701088458E0,5.105882263E0,6.120921478E0,-4.337380371E0,9.074611943E0
9.711019458E0,6.278543701E0,5.295238495E0,-3.873944092E0,9.081140047E0
9.720950458E0,7.676935730E0,5.269342346E0,-3.120411072E0,9.820299192E0
9.730880458E0,1.009306137E1,7.293582916E0,-2.385289764E0,1.267895291E1
9.740811458E0,1.300630325E1,1.023706192E1,-2.506537628E0,1.674049258E1
9.750742458E0,1.373843079E1,1.173439819E1,-3.622916107E0,1.842731946E1
9.760672458E0,1.023990601E1,1.162422729E1,-4.732558594E0,1.619800747E1
9.770603458E0,7.997568970E0,1.151719986E1,-4.908742218E0,1.485606786E1
9.780534458E0,7.551646271E0,1.145283371E1,-5.224435730E0,1.467956028E1
9.790465458E0,7.309599609E0,1.157078842E1,-5.866600342E0,1.489061418E1
9.800395458E0,6.924450531E0,1.179651901E1,-5.659281464E0,1.480315313E1
9.810326458E0,5.828280029E0,1.230501160E1,-4.383783875E0,1.430383583E1
9.820257458E0,4.488116913E0,1.337468719E1,-2.845732269E0,1.439179082E1
9.830188458E0,3.058439941E0,1.567285812E1,-2.032323761E0,1.609729407E1
9.840118458E0,8.851094055E-1,1.870195908E1,-1.421144714E0,1.877675010E1
9.850049458E0,-1.153501282E0,1.914653458E1,-9.297166443E-1,1.920376850E1
9.859980458E0,-1.764530640E0,1.559472061E1,-5.375321960E-1,1.570343339E1
9.869910458E0,-2.096839600E0,1.152019363E1,-1.185534668E0,1.176932836E1
9.879841458E0,-2.937491455E0,9.715247040E0,-2.150727539E0,1.037499446E1
9.889772458E0,-1.856589203E0,8.757239227E0,-2.494113464E0,9.292834031E0
9.899703458E0,-5.084925842E-1,8.305029602E0,-2.210453339E0,8.609191911E0
9.909633458E0,4.655319214E-1,8.341853027E0,-1.607357483E0,8.508045015E0
9.919564458E0,5.312452698E-1,8.539741516E0,-1.240919495E0,8.645767050E0
9.929495458E0,6.219566345E-1,8.535250854E0,-1.215023346E0,8.643704006E0
9.939426458E0,7.165599060E-1,8.631650391E0,-1.487157440E0,8.788087609E0
9.949356458E0,7.375163269E-1,9.255253601E0,-1.893562317E0,9.475717799E0
9.959287458E0,8.042774963E-1,1.031894165E1,-2.452799377E0,1.063690011E1
9.969218458E0,1.080004120E0,1.089823700E1,-3.201991425E0,1.141011515E1
9.979148458E0,1.599723358E0,1.033750305E1,-3.946842499E0,1.118036895E1
9.989079458E0,1.680854645E0,8.688382416E0,-4.197571106E0,9.794532379E0
9.999010458E0,1.185085602E0,7.592660980E0,-3.867357788E0,8.602870736E0
1.000894146E1,5.530998230E-1,6.837631073E0,-3.705843658E0,7.796947821E0
1.001887146E1,1.172661438E0,6.789730682E0,-2.942431183E0,7.492227897E0
1.002880246E1,8.532257080E-1,6.998845825E0,-2.442321167E0,7.461686785E0
1.003873346E1,5.965095520E-1,7.242988129E0,-2.592309265E0,7.716007258E0
1.004866446E1,4.212240601E-1,7.376211090E0,-2.987786865E0,7.969491207E0
1.005859446E1,6.990463257E-2,7.404053192E0,-3.081492004E0,8.020005193E0
1.006852546E1,-1.666035461E-1,7.478747864E0,-2.710263977E0,7.956441238E0
1.007845646E1,-6.463558960E-1,7.146738281E0,-2.547851715E0,7.614800875E0
1.008838646E1,-5.957611084E-1,7.309898987E0,-1.843566284E0,7.562294040E0
1.009831746E1,-6.752458191E-1,7.727380829E0,-1.408720551E0,7.883708834E0
1.010824846E1,1.815724182E-1,7.929909668E0,-2.594255219E0,8.345453614E0
1.011817946E1,1.600022736E0,8.683742065E0,-3.654350739E0,9.556240282E0
1.012810946E1,2.674937439E0,9.144783325E0,-4.319268036E0,1.046128237E1
1.013804046E1,3.418291626E0,9.165889435E0,-4.141437836E0,1.062307649E1
1.014797146E1,3.656296692E0,9.036408691E0,-3.513493652E0,1.036194119E1
1.015790179E1,3.279230804E0,8.907975769E0,-2.847229156E0,9.910201857E0
1.016783279E1,2.614912262E0,9.023535461E0,-2.415077820E0,9.700235009E0
1.017776379E1,2.179767151E0,9.312285004E0,-2.472109222E0,9.878327836E0
1.018769479E1,1.951042786E0,9.458979950E0,-2.773282928E0,1.004838135E1
1.019762479E1,1.983525238E0,9.401050415E0,-3.184477844E0,1.012200674E1
1.020755579E1,2.351909180E0,9.449250183E0,-3.708538055E0,1.041983975E1
1.021748679E1,2.640209656E0,9.259295197E0,-4.253554688E0,1.052606204E1
1.022741779E1,2.875071259E0,8.920848999E0,-4.595593414E0,1.043872887E1
1.023734779E1,3.060385895E0,8.712033234E0,-4.880750427E0,1.044448226E1
1.024727879E1,2.988385620E0,8.554261322E0,-5.133424988E0,1.041431167E1
1.025720979E1,3.098406830E0,8.364156647E0,-5.216053162E0,1.033278529E1
1.026713979E1,3.337160339E0,8.098309479E0,-5.073549500E0,1.012226062E1
1.027707079E1,3.704646149E0,7.642806702E0,-4.695585480E0,9.704917329E0
1.028700179E1,4.215084686E0,7.278015289E0,-4.146377563E0,9.377040704E0
1.029693279E1,4.605323181E0,7.125033417E0,-3.847748566E0,9.315592940E0
1.030686279E1,4.635410614E0,7.321425018E0,-4.200115814E0,9.629707613E0
1.031679379E1,4.440515900E0,8.036637726E0,-4.778812408E0,1.035097944E1
1.032672479E1,4.272265778E0,9.138945465E0,-4.790338440E0,1.116780737E1
1.033665579E1,4.556075592E0,1.031385223E1,-4.110003204E0,1.200106241E1
1.034658579E1,5.321434021E0,1.108474915E1,-3.173101501E0,1.269873603E1
1.035651679E1,5.213957520E0,1.107711502E1,-1.974094849E0,1.240100321E1
1.036644779E1,4.229305115E0,1.068657715E1,-8.773255920E-1,1.152647618E1
1.037637779E1,3.409909058E0,1.023227188E1,-9.280700684E-2,1.078589267E1
1.038630879E1,2.964585114E0,9.669142914E0,5.571414185E-1,1.012874603E1
1.039623979E1,2.299817505E0,9.099876709E0,1.077309723E0,9.447619431E0
1.040617079E1,1.751208344E0,8.716374207E0,1.152752838E0,8.964973457E0
1.041610079E1,1.328487396E0,8.506211243E0,8.500822449E-1,8.651193460E0
1.042603179E1,7.280859375E-1,8.494834900E0,4.412823486E-1,8.537391828E0
1.043596279E1,-3.595523071E-1,8.860374756E0,-7.150630188E-1,8.896450629E0
1.044589279E1,-8.367599487E-1,9.723629608E0,-1.442400513E0,9.865579517E0
1.045582379E1,-9.759704590E-2,1.093835358E1,-2.275418243E0,1.117294197E1
1.046575479E1,9.955796814E-1,1.208511887E1,-2.910697174E0,1.247050259E1
1.047568579E1,2.521656189E0,1.321062836E1,-2.817291412E0,1.374105463E1
1.048561579E1,3.736978912E0,1.411160477E1,-2.313289490E0,1.478017959E1
1.049554679E1,4.273762665E0,1.401535492E1,-1.534908142E0,1.473265637E1
1.050547779E1,3.767216034E0,1.230141907E1,-7.464976501E-1,1.288697352E1
1.051540879E1,3.757635956E0,9.948013000E0,2.559677124E-2,1.063407005E1
1.052533879E1,4.102219391E0,8.082891541E0,-4.445755005E-1,9.075185230E0
1.053526979E1,4.569996643E0,7.258855133E0,-1.037791901E0,8.640188608E0
1.054520079E1,3.836821289E0,6.590345306E0,-9.864486694E-1,7.689403738E0
1.055513079E1,4.019142151E0,6.861730957E0,-6.490502930E-1,7.978603991E0
1.056506179E1,3.868704987E0,7.382048950E0,-6.194119263E-1,8.357343843E0
1.057499279E1,3.231330414E0,7.360493774E0,-1.150657196E0,8.120491169E0
1.058492379E1,3.142415314E0,7.292385406E0,-2.150278473E0,8.226624851E0
1.059485379E1,2.944077759E0,7.556286621E0,-2.612517242E0,8.519994583E0
1.060478479E1,2.801274719E0,7.527696075E0,-2.465822296E0,8.402001419E0
1.061471579E1,2.907404022E0,7.667505341E0,-2.493365021E0,8.570910420E0
1.062464679E1,2.686014404E0,7.708220673E0,-2.644400940E0,8.580454280E0
1.063457679E1,2.587818604E0,7.565717010E0,-2.540067902E0,8.389804762E0
1.064450779E1,2.592758331E0,7.548951874E0,-2.461331635E0,8.352677629E0
1.065443879E1,2.651885376E0,7.585326233E0,-2.340832214E0,8.369537954E0
1.066436879E1,2.696791992E0,7.585775299E0,-2.300116882E0,8.373004933E0
1.067429979E1,2.802771606E0,7.567962341E0,-2.490520935E0,8.445843783E0
1.068423079E1,3.001558228E0,7.456743622E0,-2.732417908E0,8.489904879E0
1.069416179E1,3.260669403E0,7.426057434E0,-2.937042389E0,8.625805004E0
1.070409179E1,3.797004089E0,7.376959534E0,-3.139271851E0,8.870839857E0
1.071402279E1,4.443060608E0,7.253466339E0,-3.241658936E0,9.102851979E0
1.072395379E1,5.212310944E0,7.131020966E0,-3.091670837E0,9.358315765E0
1.073388479E1,5.892346802E0,6.964118042E0,-2.581980743E0,9.480786650E0
1.074381479E1,7.258106689E0,6.945706329E0,-1.906285858E0,1.022530561E1
1.075374579E1,8.476423187E0,6.698570251E0,-1.708996124E0,1.093806478E1
1.076367679E1,8.493936768E0,7.425308990E0,-2.294877777E0,1.151297700E1
1.077360679E1,7.736960907E0,8.109236755E0,-3.552263031E0,1.175750218E1
1.078353779E1,5.931714935E0,8.910969543E0,-4.081412659E0,1.145637594E1
1.079346879E1,4.478985901E0,9.675729218E0,-3.907174988E0,1.135548621E1
1.080339979E1,4.106560364E0,9.888287201E0,-4.784350891E0,1.172740701E1
1.081332979E1,3.960913239E0,8.848100281E0,-5.509443054E0,1.115041143E1
1.082326079E1,3.595223694E0,8.145311737E0,-5.184917908E0,1.030316021E1
1.083319179E1,3.553909607E0,8.623716888E0,-4.429139557E0,1.032550452E1
1.084312279E1,3.685485992E0,9.891280975E0,-3.761677551E0,1.120582279E1
1.085305279E1,3.726351013E0,1.284329224E1,-2.777923279E0,1.365842982E1
1.086298379E1,3.643124084E0,1.906106232E1,-2.287393341E0,1.954043546E1
1.087291479E1,4.024680634E0,2.521925629E1,-2.676434326E0,2.567824454E1
1.088284479E1,5.033133545E0,2.204061630E1,-8.265811157E-1,2.262309520E1
1.089277579E1,2.955005035E0,1.379306717E1,-2.933898926E-2,1.410608441E1
1.090270679E1,-3.442840576E-3,9.880054321E0,-1.763931885E0,1.003628123E1
1.091263779E1,-1.268162842E0,8.218958588E0,-2.402354279E0,8.656259200E0
1.092256779E1,-7.068301392E-1,7.971074066E0,-2.217937775E0,8.304027853E0
1.093249879E1,3.308120728E-1,8.729846191E0,-1.741029510E0,8.907908560E0
1.094242979E1,1.067579956E0,9.954898682E0,-1.750609589E0,1.016387567E1
1.095236079E1,9.921368408E-1,1.060544586E1,-2.408192139E0,1.092058638E1
1.096229079E1,-1.571731567E-2,1.074286011E1,-2.647095337E0,1.106419469E1
1.097222179E1,-1.346749420E0,1.060424835E1,-2.350112915E0,1.094471780E1
1.098215279E1,-1.643432465E0,1.060544586E1,-2.047142944E0,1.092552728E1
1.099208279E1,-1.206790466E0,1.090871521E1,-2.021995239E0,1.115996754E1
1.100201379E1,-7.825726318E-1,1.049737061E1,-2.349813538E0,1.078558451E1
1.101194479E1,2.576142883E-1,9.483229523E0,-2.571951599E0,9.829188284E0
1.102187579E1,1.797162781E0,7.866441650E0,-2.778222656E0,8.534003716E0
1.103180579E1,1.890418854E0,6.503226471E0,-2.922522583E0,7.376094917E0
1.104173679E1,1.851649475E0,6.028862915E0,-2.621348877E0,6.829880216E0
1.105166779E1,1.951641541E0,6.149961090E0,-2.057920532E0,6.772441438E0
1.106159779E1,1.839973755E0,6.622678070E0,-2.009122009E0,7.161140935E0
1.107152879E1,1.390608215E0,6.978637848E0,-2.498903503E0,7.541862909E0
1.108145979E1,1.324894867E0,7.544461212E0,-2.556234283E0,8.075182667E0
1.109139079E1,1.405427399E0,8.215515747E0,-2.353705444E0,8.660822968E0
1.110132079E1,1.532662811E0,9.100026398E0,-2.152523804E0,9.475911273E0
1.111125179E1,1.863025818E0,9.854158173E0,-1.899998932E0,1.020711979E1
1.112118279E1,2.152374115E0,1.006656647E1,-1.753902740E0,1.044244462E1
1.113111379E1,2.354902954E0,9.793833618E0,-1.680555267E0,1.021219912E1
1.114104379E1,2.714305573E0,9.538913727E0,-1.645977173E0,1.005323683E1
1.115097479E1,2.948867798E0,9.146280212E0,-1.995949402E0,9.814992462E0
1.116090579E1,2.680176544E0,8.245303802E0,-2.406695251E0,8.997808796E0
1.117083579E1,2.551593933E0,7.869435425E0,-2.633024597E0,8.681674034E0
1.118076679E1,2.249522095E0,7.648494873E0,-2.963537292E0,8.505432191E0
1.119069779E1,1.854792938E0,7.750732269E0,-3.229833527E0,8.599182064E0
1.120062879E1,1.347647552E0,8.150700531E0,-3.398682404E0,8.933146990E0
1.121055879E1,9.343569946E-1,8.632249146E0,-3.514990540E0,9.367171761E0
1.122048979E1,7.207511902E-1,9.098978577E0,-3.709136810E0,9.852339280E0
1.123042079E1,7.695497131E-1,9.598040771E0,-3.845503235E0,1.036834068E1
1.124035079E1,4.695735168E-1,9.108109589E0,-4.345313873E0,1.010247060E1
1.125028179E1,9.789642334E-1,8.771309967E0,-4.456981659E0,9.887311820E0
1.126021279E1,1.365759888E0,8.353079681E0,-4.648732910E0,9.656601778E0
1.127014379E1,1.557660828E0,7.785010986E0,-4.951702881E0,9.356926030E0
1.128007379E1,1.782642975E0,7.160210266E0,-5.004393311E0,8.915737739E0
1.129000479E1,2.572849731E0,6.387666779E0,-4.880301361E0,8.440330799E0
1.129993579E1,3.490591278E0,5.748046875E0,-4.670288086E0,8.187543047E0
1.130986679E1,4.022884369E0,5.644911346E0,-4.224066010E0,8.117349100E0
1.131979679E1,4.292324066E0,6.408922577E0,-3.909420319E0,8.647652960E0
1.132972779E1,3.904929657E0,7.494914246E0,-3.880081329E0,9.299314292E0
1.133965879E1,3.448828125E0,8.906329193E0,-3.884571991E0,1.031052931E1
1.134958879E1,3.928430786E0,1.061652283E1,-3.480861511E0,1.184312130E1
1.135951979E1,4.740641785E0,1.142274628E1,-2.900069275E0,1.270288230E1
1.136945079E1,4.802612915E0,1.130673752E1,-2.205812988E0,1.248090602E1
1.137938179E1,4.616998901E0,1.131781448E1,-1.737287292E0,1.234616421E1
1.138931179E1,4.216581573E0,1.126362717E1,-1.305884399E0,1.209769363E1
1.139924279E1,4.277205505E0,1.093042007E1,-5.008584595E-1,1.174816705E1
1.140917379E1,4.370311890E0,1.042342438E1,3.303630066E-1,1.130736669E1
1.141910379E1,4.134252777E0,1.006447083E1,1.104403381E0,1.093642199E1
1.142903479E1,4.026925964E0,9.811347198E0,1.336720276E0,1.068950362E1
1.143896579E1,3.676953735E0,9.645941162E0,1.070424042E0,1.037834174E1
1.144889679E1,3.170107727E0,9.811347198E0,2.583627319E-1,1.031401319E1
1.145882679E1,2.700234833E0,1.033495834E1,-8.933422852E-1,1.071917406E1
1.146875779E1,2.191891937E0,1.122440872E1,-2.287992096E0,1.166304631E1
1.147868879E1,2.397264862E0,1.178424454E1,-2.209704895E0,1.222694131E1
1.148861979E1,2.798280945E0,1.211191315E1,-1.863474884E0,1.256985899E1
1.149854979E1,3.732488251E0,1.257175690E1,-9.005273438E-1,1.314501767E1
1.150848079E1,4.230802002E0,1.264121246E1,9.520202637E-2,1.333075398E1
1.151841179E1,3.213367767E0,1.205158859E1,2.821632385E-1,1.247582206E1
1.152834179E1,2.217788086E0,1.065469345E1,-1.404080200E-1,1.088396945E1
1.153827279E1,2.028282166E0,8.739126892E0,-9.231303406E-1,9.018782457E0
1.154820379E1,2.490820312E0,7.405400391E0,-1.441951447E0,7.945021381E0
1.155813479E1,2.849773865E0,6.788533173E0,-1.875300293E0,7.597509125E0
1.156806479E1,3.107837219E0,6.744824066E0,-1.875449982E0,7.659544144E0
1.157799579E1,3.058439941E0,7.542515259E0,-1.592238922E0,8.293299469E0
1.158792679E1,2.489922180E0,8.130342865E0,-1.334624634E0,8.607172037E0
1.159785679E1,2.606978760E0,8.036937103E0,-1.560504913E0,8.592081927E0
1.160778779E1,3.052153015E0,7.735314331E0,-1.964065704E0,8.544488277E0
1.161771879E1,3.082539825E0,7.531737671E0,-2.145338745E0,8.416151285E0
1.162764979E1,2.844983826E0,7.472311249E0,-2.285148010E0,8.315724250E0
1.163757979E1,2.953358459E0,7.486831055E0,-2.421963501E0,8.404812469E0
1.164751079E1,2.923570404E0,7.615263977E0,-2.338437195E0,8.485740855E0
1.165744179E1,2.628683624E0,7.825576630E0,-2.481838989E0,8.620275631E0
1.166737279E1,2.581082611E0,7.749235382E0,-2.556982727E0,8.558667952E0
1.167730279E1,2.304457855E0,7.369175720E0,-2.597248993E0,8.146224839E0
1.168723379E1,2.039359131E0,7.077881470E0,-2.713557129E0,7.849763312E0
1.169716479E1,1.812431030E0,6.988367615E0,-2.906206512E0,7.782558991E0
1.170709479E1,1.902543640E0,6.918912048E0,-3.065924377E0,7.803262685E0
1.171702579E1,1.926942902E0,6.609206085E0,-3.131637726E0,7.563191712E0
1.172695679E1,2.024839325E0,6.379284210E0,-3.047063599E0,7.353899503E0
1.173688779E1,2.208806763E0,6.224506073E0,-2.990331573E0,7.250199038E0
1.174681779E1,2.505938873E0,6.261479187E0,-2.929408264E0,7.353045901E0
1.175674879E1,3.241509247E0,6.437812500E0,-2.963686981E0,7.793346682E0
1.176667979E1,4.414320374E0,6.612798615E0,-2.904110870E0,8.464584445E0
1.177661079E1,6.063441010E0,7.227121124E0,-2.778671722E0,9.834511333E0
1.178654079E1,7.951913910E0,8.461304626E0,-2.577340393E0,1.189408653E1
1.179647179E1,9.925410004E0,9.686057739E0,-2.702330475E0,1.412926284E1
1.180640279E1,1.058942917E1,1.043090881E1,-3.183130646E0,1.520105883E1
1.181633279E1,8.466244354E0,1.074705139E1,-3.459905090E0,1.411195771E1
1.182626379E1,6.519243164E0,1.085512665E1,-3.498225403E0,1.313666194E1
1.183619479E1,5.411097565E0,1.067190765E1,-3.586242371E0,1.249122589E1
1.184612579E1,4.646337891E0,1.049228119E1,-3.789220276E0,1.208447809E1
1.185605579E1,4.596192169E0,9.991123352E0,-4.137096863E0,1.175002548E1
1.186598679E1,4.550537109E0,9.536069641E0,-4.528682556E0,1.149578087E1
1.187591779E1,4.125421143E0,1.030531998E1,-4.331243134E0,1.191546837E1
1.188584879E1,3.548670502E0,1.212299011E1,-3.494632874E0,1.310619741E1
1.189577879E1,2.684068451E0,1.538276138E1,-3.199147339E0,1.593951426E1
1.190570979E1,2.108665009E0,1.847113907E1,-3.232378235E0,1.887002161E1
1.191564079E1,1.839973755E0,1.805979446E1,-1.638941803E0,1.822711743E1
1.192557079E1,8.919950867E-1,1.397733398E1,-7.237449646E-1,1.402445462E1
1.193550179E1,1.242416382E-1,1.219109848E1,-1.231638794E0,1.225378522E1
1.194543279E1,6.795867920E-1,1.205533081E1,-1.597028961E0,1.217962810E1
1.195536379E1,1.401535492E0,1.123922791E1,-1.710343323E0,1.145468550E1
1.196529379E1,1.415306854E0,1.054841446E1,-1.436562653E0,1.073945312E1
1.197522479E1,1.100361786E0,1.005608826E1,-1.373843079E0,1.020897409E1
1.198515579E1,7.125183105E-2,9.269024963E0,-1.597627716E0,9.405972300E0
1.199508579E1,-3.167413330E-1,8.227939911E0,-1.378333740E0,8.348600131E0
1.200501679E1,-1.055305481E-1,7.973618774E0,-1.041085052E0,8.041989253E0
1.201494779E1,3.908372498E-1,8.130642242E0,-1.072220306E0,8.210344293E0
1.202487879E1,6.785389709E-1,8.643176422E0,-1.223256226E0,8.755642158E0
1.203480879E1,7.607180786E-1,9.320368195E0,-1.563648376E0,9.481189352E0
1.204473979E1,5.665718079E-1,9.711953888E0,-2.545157318E0,1.005588771E1
1.205467079E1,6.462062073E-1,9.621990967E0,-3.456162872E0,1.024428399E1
1.206460179E1,1.947150879E0,8.614136810E0,-3.445534973E0,9.479792233E0
1.207453179E1,2.232158203E0,7.614964600E0,-3.034639435E0,8.495837369E0
1.208446279E1,1.662442932E0,7.014862518E0,-2.417023773E0,7.603552891E0
1.209439379E1,1.298399963E0,6.827302551E0,-2.326013031E0,7.328590534E0
1.210432379E1,1.211730194E0,7.040459290E0,-2.566712494E0,7.591071736E0
1.211425479E1,1.136885834E0,7.088808746E0,-2.619103546E0,7.642213176E0
1.212418579E1,9.229806519E-1,6.878496094E0,-2.630180511E0,7.421822641E0
1.213411679E1,8.177494812E-1,6.971303101E0,-2.550097046E0,7.467983401E0
1.214404679E1,9.669891357E-1,7.554340668E0,-2.485281830E0,8.011226915E0
1.215397779E1,1.327589264E0,8.305179291E0,-2.348616028E0,8.732381895E0
1.216390829E1,1.791474609E0,9.054521027E0,-2.209555206E0,9.490830654E0
1.217383929E1,2.225871277E0,9.506281586E0,-2.221530304E0,1.001294609E1
1.218376929E1,2.791395264E0,9.838740234E0,-2.234553223E0,1.046832962E1
1.219370029E1,3.281326447E0,1.011267059E1,-2.252815247E0,1.086776823E1
1.220363129E1,2.986289978E0,9.481582947E0,-2.763403473E0,1.031769072E1
1.221356129E1,2.724783783E0,9.380393372E0,-2.572550354E0,1.010120002E1
1.222349229E1,2.303559723E0,9.467063141E0,-2.486479340E0,1.005555823E1
1.223342329E1,2.006577301E0,9.717492371E0,-2.600991211E0,1.025773687E1
1.224335429E1,1.782044220E0,1.007929001E1,-2.811154175E0,1.061462936E1
1.225328429E1,1.470691681E0,1.039677979E1,-3.002905426E0,1.092123642E1
1.226321529E1,1.364263000E0,1.070079758E1,-3.106939087E0,1.122592325E1
1.227314629E1,9.288185120E-1,1.033540741E1,-3.724405060E0,1.102517769E1
1.228307629E1,9.803114319E-1,9.841284943E0,-4.130510559E0,1.071788306E1
1.229300729E1,9.301657104E-1,9.589807892E0,-4.428391113E0,1.060378572E1
1.230293829E1,1.047671356E0,9.017996979E0,-4.692891083E0,1.021983911E1
1.231286929E1,1.169517975E0,8.061036987E0,-4.828958130E0,9.469262180E0
1.232279929E1,1.672023010E0,7.090904388E0,-4.944218445E0,8.804651158E0
1.233273029E1,2.478246460E0,6.373446350E0,-4.794080658E0,8.351391097E0
1.234266129E1,3.571722565E0,5.897585907E0,-4.742587738E0,8.368444304E0
1.235259229E1,4.556225281E0,5.713169403E0,-4.899611206E0,8.798049978E0
1.236252229E1,5.223238220E0,5.804030457E0,-4.916526031E0,9.227199752E0
1.237245329E1,5.305866394E0,6.455026703E0,-5.014422455E0,9.744948460E0
1.238238429E1,4.477489014E0,7.521858215E0,-5.170547791E0,1.016665251E1
1.239231429E1,3.140169983E0,9.012009430E0,-5.074148254E0,1.080851340E1
1.240224529E1,2.538421326E0,1.094523926E1,-4.414919128E0,1.207200713E1
1.241217629E1,3.374432831E0,1.176343781E1,-3.506158905E0,1.273021666E1
1.242210729E1,3.337010651E0,1.091066116E1,-2.749033356E0,1.173607053E1
1.243203729E1,2.858755188E0,1.026729904E1,-1.920057220E0,1.082942891E1
1.244196829E1,2.508483582E0,9.949958954E0,-1.232536926E0,1.033505299E1
1.245189929E1,2.251617737E0,9.329798584E0,-7.315287781E-1,9.625490034E0
1.246182929E1,1.804796906E0,8.639583893E0,-3.248245239E-1,8.832055971E0
1.247176029E1,1.217268677E0,8.052055664E0,-5.628295898E-2,8.143740616E0
1.248169129E1,9.388476562E-1,7.656578064E0,1.496887207E-1,7.715376160E0
1.249162229E1,9.874964905E-1,7.490573273E0,5.867797852E-1,7.578136169E0
1.250155229E1,1.014141083E0,8.212072906E0,1.839674377E-1,8.276500926E0
1.251148329E1,8.626560974E-1,9.777517548E0,-6.909631348E-1,9.839789377E0
1.252141429E1,1.177601166E0,1.163934586E1,-1.467398529E0,1.179043574E1
1.253134529E1,2.380499725E0,1.364203125E1,-2.499502258E0,1.407193331E1
1.254127529E1,5.122048645E0,1.542766800E1,-2.296823730E0,1.641717763E1
1.255120629E1,7.322023773E0,1.658670776E1,-1.162632294E0,1.816817603E1
1.256113729E1,8.049660645E0,1.689985657E1,1.916015625E-2,1.871904259E1
1.257106729E1,6.779851227E0,1.492950394E1,5.513035583E-1,1.640610880E1
1.258099829E1,5.978717194E0,1.178155014E1,6.330335999E-1,1.322689361E1
1.259092929E1,5.332960052E0,9.118138733E0,1.237925720E-1,1.056391222E1
1.260086029E1,5.323978729E0,7.207960968E0,-1.141077118E0,9.033355291E0
1.261079029E1,5.447022858E0,6.383325806E0,-1.724713440E0,8.566886412E0
1.262072129E1,4.254153442E0,6.144272919E0,-2.406844940E0,7.851293765E0
1.263065229E1,3.276536407E0,6.694977722E0,-2.813399506E0,7.967034223E0
1.264058229E1,2.829715576E0,7.126979370E0,-3.101400604E0,8.271626859E0
1.265051329E1,2.365081787E0,6.940317535E0,-3.319646759E0,8.048706353E0
1.266044429E1,2.109712830E0,6.925348663E0,-3.310964813E0,7.960768200E0
1.267037529E1,1.719624023E0,7.103328552E0,-3.061433716E0,7.923809671E0
1.268030529E1,1.249451752E0,7.380552063E0,-2.852468262E0,8.010633784E0
1.269023629E1,1.062041473E0,7.543563080E0,-2.620001678E0,8.055909932E0
1.270016729E1,8.909472656E-1,7.478598175E0,-2.390079803E0,7.901626362E0
1.271009829E1,6.978488159E-1,7.247927856E0,-2.124382324E0,7.585014927E0
1.272002829E1,6.882687378E-1,6.876699829E0,-1.978884888E0,7.188789870E0
1.272995929E1,7.107220459E-1,6.538403320E0,-1.993105316E0,6.872285836E0
1.273989029E1,7.288343811E-1,6.458768921E0,-2.082319794E0,6.825170419E0
1.274982029E1,7.065307617E-1,6.489155731E0,-2.239942017E0,6.901135273E0
1.275975129E1,8.018824768E-1,6.433770905E0,-2.271226959E0,6.869854108E0
1.276968229E1,1.021326141E0,6.289770355E0,-2.351609802E0,6.792229889E0
1.277961329E1,1.394051056E0,6.292015686E0,-2.534080353E0,6.924911767E0
1.278954329E1,1.979633331E0,6.567293243E0,-2.732567596E0,7.383441903E0
1.279947429E1,2.706222382E0,7.093598785E0,-2.726280670E0,8.066931858E0
1.280940529E1,3.716172180E0,7.653584290E0,-2.404449921E0,8.841304631E0
1.281933529E1,4.882247314E0,7.982899475E0,-2.672243042E0,9.731593176E0
1.282926629E1,6.144871674E0,7.967930603E0,-2.958447876E0,1.048807798E1
1.283919729E1,7.893535309E0,8.993747406E0,-4.376748505E0,1.274171572E1
1.284912829E1,9.464219055E0,1.016610947E1,-6.292464752E0,1.524848637E1
1.285905829E1,8.329129486E0,9.970615997E0,-6.181695099E0,1.438752709E1
1.286898929E1,6.414610748E0,9.504784698E0,-5.143304443E0,1.256748757E1
1.287892029E1,6.013744354E0,9.771679688E0,-4.881199493E0,1.246903980E1
1.288885129E1,5.630840607E0,9.896819458E0,-4.852459259E0,1.237738915E1
1.289878129E1,4.984484711E0,9.399703217E0,-5.196593628E0,1.184078096E1
1.290871229E1,4.970713348E0,9.260193329E0,-5.172044678E0,1.171363384E1
1.291864329E1,5.166356506E0,1.085497696E1,-4.271217957E0,1.275794134E1
1.292857329E1,5.265450439E0,1.363245117E1,-2.965782623E0,1.491189324E1
1.293850429E1,5.437891846E0,1.725596603E1,-2.214794312E0,1.822757102E1
1.294843529E1,5.055437164E0,2.007131149E1,-1.583856354E0,2.075869916E1
1.295836629E1,3.717070312E0,1.909070068E1,-8.051756287E-1,1.946586171E1
1.296829629E1,1.637594604E0,1.497994904E1,-7.827223206E-1,1.508950773E1
1.297822729E1,-3.802093506E-2,1.177017380E1,-1.575174408E0,1.187516784E1
1.298815829E1,-6.231541443E-1,9.270821228E0,-2.537223816E0,9.631923589E0
1.299808829E1,-3.451821899E-1,8.123307495E0,-2.898273010E0,8.631758908E0
1.300801929E1,-1.275347900E-1,8.253237305E0,-2.678080902E0,8.677805509E0
1.301795029E1,-1.125659180E-1,8.514144745E0,-2.422861633E0,8.852885988E0
1.302788129E1,-4.099974060E-1,8.286767578E0,-1.926344147E0,8.517594528E0
1.303781129E1,-1.020877075E-1,8.275989990E0,-1.570833435E0,8.424366439E0
1.304774229E1,3.023712158E-1,8.841513977E0,-1.238674164E0,8.932978867E0
1.305767329E1,4.387376404E-1,9.984087982E0,-9.933343506E-1,1.004296852E1
1.306760329E1,6.920109558E-1,1.135912857E1,-1.649719391E0,1.149914149E1
1.307753429E1,7.000941467E-1,1.190010361E1,-2.449206848E0,1.216968413E1
1.308746529E1,8.328680420E-1,1.102502335E1,-3.196602631E0,1.150926050E1
1.309739629E1,1.139280853E0,9.392218781E0,-3.998335419E0,1.027124241E1
1.310732629E1,1.055604858E0,8.264164581E0,-4.134851532E0,9.300952372E0
1.311725729E1,5.800437927E-1,7.603139191E0,-3.953129425E0,8.589028385E0
1.312718829E1,7.656578064E-1,7.410938873E0,-3.441044312E0,8.206645649E0
1.313711929E1,9.859996033E-1,7.301666107E0,-2.738555145E0,7.860420310E0
1.314704929E1,5.722599792E-1,7.521409149E0,-2.399061127E0,7.915464065E0
1.315698029E1,6.599775696E-1,7.972570953E0,-2.763702850E0,8.463776429E0
1.316691129E1,1.203197937E0,8.603508911E0,-2.929258575E0,9.167802717E0
1.317684129E1,1.749561768E0,8.926986237E0,-2.788102112E0,9.514492264E0
1.318677229E1,2.231559448E0,8.955427094E0,-2.323468323E0,9.517249447E0
1.319670329E1,2.804418182E0,9.113049316E0,-1.829196167E0,9.708675904E0
1.320663429E1,2.660417633E0,8.939859467E0,-2.051932983E0,9.550358016E0
1.321656429E1,2.672991486E0,8.724008331E0,-2.086810455E0,9.359913607E0
1.322649529E1,2.474354553E0,8.336314545E0,-2.168839874E0,8.962166984E0
1.323642629E1,2.142045593E0,8.102650452E0,-2.202819214E0,8.665663053E0
1.324635629E1,1.643582153E0,7.767647095E0,-2.661914520E0,8.373977107E0
1.325628729E1,1.675615540E0,7.511380005E0,-3.190914459E0,8.331293543E0
1.326621829E1,1.809137878E0,7.766449585E0,-3.173849945E0,8.582775920E0
1.327614929E1,1.829944611E0,8.074958038E0,-3.165916443E0,8.864348342E0
1.328607929E1,1.974543915E0,8.382418671E0,-3.191513214E0,9.184199641E0
1.329601029E1,2.185904388E0,8.683442688E0,-3.180136871E0,9.502295798E0
1.330594129E1,2.402204590E0,8.954528961E0,-3.158581696E0,9.794427708E0
1.331587229E1,2.567161560E0,9.249116364E0,-3.235671387E0,1.012946402E1
1.332580229E1,2.503094788E0,9.442514191E0,-3.423979797E0,1.035133786E1
1.333573329E1,2.408790894E0,9.583670654E0,-3.673361206E0,1.054241905E1
1.334566429E1,2.379002838E0,9.611363068E0,-3.954925690E0,1.066205382E1
1.335559429E1,2.256557465E0,9.385931854E0,-4.149820404E0,1.050755812E1
1.336552529E1,2.125130768E0,8.889863434E0,-4.155508575E0,1.004062270E1
1.337545629E1,1.924098816E0,8.221503296E0,-3.944447479E0,9.319546052E0
1.338538729E1,1.917213135E0,7.421716461E0,-3.550915833E0,8.447874566E0
1.339531729E1,2.285447388E0,6.649472351E0,-3.226091309E0,7.736046629E0
1.340524829E1,2.654280396E0,6.194418640E0,-3.206182709E0,7.462950775E0
1.341517929E1,2.815794525E0,6.428831177E0,-3.446732483E0,7.819113371E0
1.342510929E1,2.564916229E0,7.401957550E0,-4.019142151E0,8.804616656E0
1.343504029E1,2.035467224E0,8.771160278E0,-4.804858246E0,1.020602970E1
1.344497129E1,1.493294678E0,1.018871246E1,-5.600902863E0,1.172219704E1
1.345490229E1,1.348994751E0,1.125928619E1,-5.922134857E0,1.279308382E1
1.346483229E1,2.349364471E0,1.160940811E1,-5.312153320E0,1.298140374E1
1.347476329E1,3.728446655E0,1.089030350E1,-4.081113281E0,1.221292391E1
1.348469429E1,3.869603119E0,9.890981598E0,-2.606978760E0,1.093625546E1
1.349462429E1,3.899840240E0,9.185049591E0,-1.536704407E0,1.009630380E1
1.350455529E1,3.730542297E0,8.587492218E0,-7.617658997E-1,9.393734918E0
1.351448629E1,3.428320770E0,8.126900024E0,-1.839674377E-1,8.822342735E0
1.352441729E1,2.779869232E0,7.695796509E0,2.724334717E-1,8.187012694E0
1.353434729E1,1.630259857E0,7.232659607E0,4.441264343E-1,7.427406040E0
1.354427829E1,5.813909912E-1,6.804100800E0,8.607101440E-2,6.829437121E0
1.355420929E1,-4.095483398E-1,6.690936127E0,-2.656974792E-1,6.708722028E0
1.356414029E1,-9.720785522E-1,6.809040527E0,-1.197509766E-3,6.878079023E0
1.357407029E1,-8.065228271E-1,7.618407440E0,-9.071136475E-2,7.661516792E0
1.358400129E1,-3.480262756E-1,9.972861328E0,-8.834628296E-1,1.001796346E1
1.359393229E1,5.031037903E-1,1.292547134E1,-2.275717621E0,1.313391844E1
1.360386229E1,3.216660919E0,1.604004456E1,-3.575015717E0,1.674546727E1
1.361379329E1,6.832242279E0,1.841036545E1,-2.949316864E0,1.985748122E1
1.362372429E1,8.955576782E0,1.876782211E1,-1.352587280E0,2.083897778E1
1.363365529E1,9.512269135E0,1.700987778E1,5.161267090E-1,1.949578398E1
1.364358529E1,8.821605377E0,1.436278244E1,2.517165527E0,1.704248700E1
1.365351629E1,7.589966583E0,1.063418610E1,2.102677460E0,1.323309333E1
1.366344729E1,6.357729034E0,7.142996063E0,4.366419983E-1,9.572552819E0
1.367337829E1,5.935906219E0,5.393434296E0,-1.426084442E0,8.146031732E0
1.368330829E1,4.573289795E0,4.931045837E0,-1.979633331E0,7.010644815E0
1.369323929E1,3.409459991E0,4.963228912E0,-2.315983887E0,6.451499053E0
1.370317029E1,3.586092682E0,5.988147583E0,-2.608176270E0,7.451211690E0
1.371310029E1,2.686164093E0,6.697223053E0,-2.918780365E0,7.783800677E0
1.372303129E1,2.194137268E0,7.140601044E0,-3.647465057E0,8.313027304E0
1.373296229E1,1.946103058E0,7.304659882E0,-3.752247162E0,8.439474620E0
1.374289329E1,1.815873871E0,7.543114014E0,-3.233126678E0,8.405300414E0
1.375282329E1,1.587448883E0,7.900271301E0,-2.759212189E0,8.517483930E0
1.376275429E1,1.631008301E0,8.099956055E0,-2.447410583E0,8.617383288E0
1.377268529E1,1.848955078E0,8.071814575E0,-2.190544739E0,8.565705556E0
1.378261529E1,2.005679169E0,7.735613708E0,-1.941163330E0,8.223781578E0
1.379254629E1,2.348466339E0,7.254963226E0,-1.810335388E0,7.837544244E0
1.380247729E1,2.485431519E0,6.903344421E0,-1.908082123E0,7.581181400E0
1.381240829E1,2.559228058E0,6.670728149E0,-2.189496918E0,7.472761140E0
1.382233829E1,2.562670898E0,6.680308228E0,-2.523901520E0,7.587086333E0
1.383226929E1,2.393223267E0,6.749314728E0,-2.882106628E0,7.719281412E0
1.384220029E1,2.353406067E0,6.815477142E0,-3.224594421E0,7.898560500E0
1.385213029E1,2.452799377E0,6.807094574E0,-3.679199066E0,8.117220404E0
1.386206129E1,2.860401764E0,6.763535156E0,-3.954476624E0,8.340575006E0
1.387199229E1,3.280278625E0,6.444997559E0,-4.090393982E0,8.308402032E0
1.388192329E1,3.800147552E0,6.022725677E0,-4.026327209E0,8.180810278E0
1.389185329E1,4.575834503E0,5.792354736E0,-3.734583893E0,8.272650823E0
1.390178429E1,5.911057892E0,6.015989685E0,-3.345393219E0,9.073279070E0
1.391171529E1,7.583979034E0,7.355853424E0,-2.964734802E0,1.097337551E1
1.392164629E1,9.627828827E0,8.919352112E0,-2.896027679E0,1.344012300E1
1.393157629E1,1.067445236E1,9.449699249E0,-3.418740692E0,1.466044123E1
1.394150729E1,8.326734467E0,9.830507355E0,-4.138743439E0,1.353154016E1
1.395143829E1,6.292315063E0,1.049692154E1,-4.511019287E0,1.304330808E1
1.396136829E1,5.737418976E0,1.026595184E1,-4.844376068E0,1.271910859E1
1.397129929E1,5.689219208E0,9.410181427E0,-5.363197174E0,1.223448461E1
1.398123029E1,5.440286865E0,8.582851868E0,-5.239404602E0,1.143299733E1
1.399116129E1,5.616769867E0,9.065747681E0,-4.096381531E0,1.142436985E1
1.400109129E1,5.659580841E0,1.019499939E1,-3.317102051E0,1.212320229E1
1.401102229E1,5.423821106E0,1.238479568E1,-2.716700592E0,1.379062949E1
1.402095329E1,5.498665466E0,1.634780457E1,-1.663490753E0,1.732781687E1
1.403088329E1,4.548591156E0,2.046035248E1,-7.412585449E-1,2.097296282E1
1.404081429E1,2.728076935E0,2.138273438E1,7.258406067E-1,2.156827711E1
1.405074529E1,1.538350983E0,1.740505600E1,1.135388947E0,1.750975746E1
1.406067629E1,-4.643344116E-1,1.300256104E1,-5.134323120E-1,1.302097587E1
1.407060629E1,-1.724264374E0,1.018706589E1,-2.337239685E0,1.059302074E1
1.408053729E1,-1.839524689E0,8.254883881E0,-3.572620697E0,9.180990012E0
1.409046829E1,-1.575623474E0,7.297474823E0,-4.087100830E0,8.511176259E0
1.410039929E1,-1.521885223E0,7.362439728E0,-3.477718048E0,8.283488166E0
1.411032929E1,-1.978884888E0,6.573879547E0,-2.170037384E0,7.200065274E0
1.412026029E1,-1.578317871E0,5.936355286E0,-1.462907867E0,6.314388395E0
1.413019129E1,-1.001866608E0,6.472689972E0,-1.378333740E0,6.693224639E0
1.414012129E1,-1.853146362E-1,7.821984100E0,-2.024689636E0,8.081902307E0
1.415005229E1,7.244934082E-1,9.923314362E0,-2.765499115E0,1.032690873E1
1.415998329E1,1.554517365E0,1.187690186E1,-2.923271027E0,1.232975407E1
1.416991429E1,1.905537415E0,1.259600647E1,-3.101101227E0,1.311134168E1
1.417984429E1,2.141746216E0,1.200413727E1,-3.254681854E0,1.262059200E1
1.418977529E1,1.736089783E0,1.039363632E1,-3.223696289E0,1.101970515E1
1.419970629E1,2.078427887E0,8.801696777E0,-3.358116760E0,9.647107174E0
1.420963729E1,2.012115784E0,7.977061615E0,-2.874322815E0,8.714577074E0
1.421956729E1,2.364033966E0,7.534432068E0,-3.619024200E0,8.686406584E0
1.422949829E1,1.569336548E0,6.881938934E0,-3.477867737E0,7.868892215E0
1.423942929E1,1.495989075E0,7.269183655E0,-2.724634094E0,7.905861450E0
1.424935929E1,2.012265472E0,7.702233124E0,-2.851570129E0,8.456066439E0
1.425929029E1,2.110461273E0,8.458310852E0,-2.161205750E0,8.981529911E0
1.426922129E1,2.787653046E0,8.145760803E0,-2.549947357E0,8.979234939E0
1.427915229E1,3.114273834E0,7.772137756E0,-2.811004486E0,8.832132984E0
1.428908229E1,2.582729187E0,7.908653870E0,-1.890119476E0,8.531696649E0
1.429901329E1,1.706002350E0,8.091274109E0,-1.495390320E0,8.403294171E0
1.430894429E1,1.096320190E0,8.083041229E0,-1.880838776E0,8.371082844E0
1.431887429E1,1.466949463E0,7.822882233E0,-2.013912048E0,8.210071187E0
1.432880529E1,8.280780029E-1,8.306077423E0,-1.664239197E0,8.511540838E0
1.433873629E1,2.552192688E-1,8.628955994E0,-1.990111542E0,8.859151334E0
1.434866729E1,-5.179229736E-2,9.289232941E0,-2.433639221E0,9.602870973E0
1.435859729E1,2.716850281E-1,8.938063202E0,-3.089724884E0,9.460929469E0
1.436852829E1,1.026714935E0,8.562793579E0,-3.675905914E0,9.374852624E0
1.437845929E1,1.942211151E0,8.651409302E0,-3.839365997E0,9.662287427E0
1.438838929E1,2.379002838E0,8.862470398E0,-3.783681793E0,9.925688086E0
1.439832029E1,2.540666656E0,8.899742889E0,-3.870501251E0,1.003200830E1
1.440825129E1,2.890938263E0,8.559799805E0,-4.145778809E0,9.940582411E0
1.441818229E1,3.381767578E0,8.067772980E0,-4.442312164E0,9.811190049E0
1.442811229E1,3.701951752E0,7.636220398E0,-4.565206604E0,9.636255501E0
1.443804329E1,3.723357239E0,7.475903778E0,-4.488865356E0,9.481689650E0
1.444797429E1,3.847598877E0,7.777227173E0,-4.043242035E0,9.572726141E0
1.445790529E1,3.928730164E0,8.149353333E0,-3.735781403E0,9.787897789E0
1.446783529E1,3.861819305E0,8.589288483E0,-3.470083923E0,1.003648382E1
1.447776629E1,4.031566315E0,9.095984802E0,-3.230731659E0,1.046078838E1
1.448769729E1,3.245401154E0,8.913813629E0,-3.586691437E0,1.014164965E1
1.449762729E1,2.269879761E0,8.896599426E0,-4.221670990E0,1.010565888E1
1.450755829E1,2.375709686E0,9.937385101E0,-4.175716553E0,1.103776372E1
1.451748929E1,2.688858490E0,1.083132614E1,-4.547992401E0,1.205121657E1
1.452742029E1,3.318449249E0,1.118189713E1,-4.373305664E0,1.245683472E1
1.453735029E1,3.606899414E0,1.021655457E1,-3.843557281E0,1.149611426E1
1.454728129E1,3.781586151E0,8.511600037E0,-2.711910553E0,9.700628219E0
1.455721229E1,3.411106567E0,8.286168823E0,-1.624122620E0,9.106811520E0
1.456714229E1,2.868484955E0,8.236023102E0,-8.095166016E-1,8.758744179E0
1.457707329E1,3.256178741E0,8.229586487E0,-3.794609070E-1,8.858486571E0
1.458700429E1,3.159479828E0,8.101902008E0,-1.960922241E-1,8.698366576E0
1.459693529E1,2.203118591E0,7.704478455E0,-2.384541321E-1,8.016831055E0
1.460686529E1,9.210346985E-1,7.453151093E0,-1.983375549E-1,7.512463238E0
1.461679629E1,-8.607101440E-2,7.359296265E0,-1.374142456E-1,7.361082285E0
1.462672729E1,-6.935078430E-1,7.647746429E0,1.698966980E-1,7.681005368E0
1.463665729E1,-1.183738403E0,8.300538940E0,3.682342529E-2,8.384601319E0
1.464658829E1,-1.621877289E0,9.480235748E0,-2.221380615E-1,9.620535385E0
1.465651929E1,-7.378157043E-1,1.078731766E1,-5.188211060E-1,1.082496049E1
1.466645029E1,1.480122070E0,1.331091980E1,-1.400637360E0,1.346599912E1
1.467638029E1,4.478985901E0,1.617715942E1,-2.273621979E0,1.693904244E1
1.468631129E1,7.399712219E0,1.732497253E1,-1.564247131E0,1.890389598E1
1.469624229E1,9.046288147E0,1.725192444E1,-8.292755127E-2,1.948001805E1
1.470617329E1,8.367000732E0,1.582209778E1,6.077362061E-1,1.790851258E1
1.471610329E1,7.103328552E0,1.281335449E1,8.159532166E-1,1.467327876E1
1.472603429E1,5.967939606E0,9.359287262E0,4.601431274E-1,1.110964864E1
1.473596529E1,5.779331818E0,6.967111816E0,-9.397457886E-1,9.100793672E0
1.474589529E1,5.221292267E0,5.941744080E0,-1.954635315E0,8.147810433E0
1.475582629E1,4.558470612E0,6.422544250E0,-2.628084869E0,8.302744067E0
1.476575729E1,4.079766083E0,7.393574982E0,-2.500400391E0,8.806897548E0
1.477568829E1,3.259022827E0,8.017776947E0,-2.793790283E0,9.094572068E0
1.478561829E1,2.997366943E0,7.863747253E0,-3.257376251E0,9.024036209E0
1.479554929E1,2.777174835E0,7.406148834E0,-3.089874573E0,8.491823449E0
1.480548029E1,2.875520325E0,7.642357635E0,-3.002306671E0,8.699890385E0
1.481541029E1,2.842738495E0,8.032147064E0,-2.851420441E0,8.984828721E0
1.482534129E1,2.608775024E0,8.218359833E0,-2.689008179E0,9.032049073E0
1.483527229E1,2.368524628E0,7.975864105E0,-2.574346619E0,8.709281121E0
1.484520329E1,2.174228668E0,7.348818054E0,-2.428998871E0,8.039429868E0
1.485513329E1,2.015259247E0,6.892866211E0,-2.438279572E0,7.584067623E0
1.486506429E1,2.076931000E0,6.549480286E0,-2.461331635E0,7.298457906E0
1.487499529E1,2.037712555E0,6.260581055E0,-2.612517242E0,7.083247415E0
1.488492529E1,2.129322052E0,6.154900818E0,-2.793191528E0,7.086517861E0
1.489485629E1,2.137255554E0,6.027815094E0,-2.997666321E0,7.063173471E0
1.490478729E1,2.037562866E0,6.027964783E0,-3.195105743E0,7.120163100E0
1.491471829E1,2.168390808E0,6.060596924E0,-3.438349915E0,7.297602614E0
1.492464829E1,2.572400665E0,6.106551361E0,-3.677851868E0,7.578509687E0
1.493457929E1,3.225342865E0,6.018235016E0,-3.791615295E0,7.810143139E0
1.494451029E1,3.892206116E0,5.638025665E0,-3.803291016E0,7.835918861E0
1.495444129E1,4.502786407E0,5.214256897E0,-3.528462524E0,7.740388117E0
1.496437129E1,5.260959778E0,5.384752350E0,-3.129991150E0,8.152919738E0
1.497430229E1,6.429878998E0,5.960455170E0,-2.773582306E0,9.195821256E0
1.498423329E1,8.203989716E0,7.331005096E0,-2.638263702E0,1.131412915E1
1.499416329E1,1.045081741E1,8.562643890E0,-2.881807251E0,1.381460343E1
1.500409429E1,1.127051285E1,9.510173492E0,-3.847748566E0,1.524050618E1
1.501402529E1,8.769364014E0,1.055245605E1,-4.734504547E0,1.451453090E1
1.502395629E1,6.726861420E0,1.052730835E1,-5.144352264E0,1.351070856E1
1.503388629E1,6.302344208E0,9.937983856E0,-5.254223785E0,1.288758834E1
1.504381729E1,6.095175018E0,9.079668732E0,-5.551804962E0,1.226434185E1
1.505374829E1,5.897885284E0,8.386160889E0,-5.296735382E0,1.153985056E1
1.506367829E1,5.626499634E0,8.589438171E0,-4.409530334E0,1.117496774E1
1.507360929E1,5.459447021E0,1.059526703E1,-3.675456848E0,1.247293984E1
1.508354029E1,5.770949249E0,1.464823883E1,-3.405418396E0,1.610812312E1
1.509347129E1,6.419400787E0,2.030362839E1,-2.462379456E0,2.143616908E1
1.510340129E1,5.004842377E0,2.445000595E1,2.718347168E-1,2.495846815E1
1.511333229E1,1.686692505E0,2.170980423E1,2.813249817E0,2.195620427E1
1.512326329E1,-9.252259827E-1,1.604243958E1,1.591490479E0,1.614771664E1
1.513319429E1,-2.231709137E0,1.148486710E1,-1.016985168E0,1.174380504E1
1.514312429E1,-3.123255157E0,7.932753754E0,-2.298919373E0,8.829968017E0
1.515305529E1,-3.328328705E0,6.373446350E0,-2.946622467E0,7.770532434E0
1.516298683E1,-3.931723938E0,6.707701263E0,-3.140619049E0,8.385415754E0
1.517291683E1,-3.973038025E0,7.462731171E0,-2.564616852E0,8.834854117E0
1.518284783E1,-4.059707794E0,8.111931152E0,-1.672621765E0,9.224007695E0
1.519277883E1,-4.018842773E0,8.313262482E0,-1.377285919E0,9.335863475E0
1.520270983E1,-3.689377899E0,9.366322632E0,-1.401236115E0,1.016380694E1
1.521263983E1,-2.571502533E0,1.131317413E1,-1.689835968E0,1.172416649E1
1.522257083E1,-1.586251373E0,1.316138077E1,-2.395318909E0,1.347129132E1
1.523250183E1,-1.348246307E0,1.333891159E1,-3.637435913E0,1.389155393E1
1.524243183E1,-3.260220337E-1,1.252370682E1,-3.885021057E0,1.311651293E1
1.525236283E1,-1.658551025E0,1.098011673E1,-4.075724487E0,1.182900186E1
1.526229383E1,-1.889969788E0,9.932595062E0,-3.653003540E0,1.075048210E1
1.527222483E1,-1.997595978E0,9.601782990E0,-3.655099182E0,1.046634494E1
1.528215483E1,-2.376757507E0,9.566905518E0,-3.918850708E0,1.060811238E1
1.529208583E1,-2.513273621E0,9.346414032E0,-4.881349182E0,1.083972183E1
1.530201683E1,-1.579515381E0,9.119186554E0,-5.243296509E0,1.063703862E1
1.531194683E1,-8.493338013E-1,9.350904694E0,-4.640799408E0,1.047367202E1
1.532187783E1,4.505630493E-2,9.836345215E0,-5.145998840E0,1.110121711E1
1.533180883E1,7.899073792E-1,1.010743149E1,-5.709127808E0,1.163521660E1
1.534173983E1,1.707648926E0,1.026445496E1,-5.895041199E0,1.195937336E1
1.535166983E1,2.875071259E0,1.041339523E1,-5.357059937E0,1.205831357E1
1.536160083E1,3.282374268E0,1.055365356E1,-4.509672089E0,1.193694797E1
1.537153183E1,2.963986359E0,1.041369461E1,-4.110302582E0,1.158122782E1
1.538146283E1,2.265389099E0,1.016521133E1,-4.077820129E0,1.118445914E1
1.539139283E1,1.251697083E0,9.621541901E0,-4.738097076E0,1.079770244E1
1.540132383E1,8.158035278E-1,8.904981995E0,-5.369484100E0,1.043051289E1
1.541125483E1,5.914201355E-1,8.258027344E0,-5.673052826E0,1.003635002E1
1.542118483E1,6.418652344E-1,7.725883942E0,-5.641618195E0,9.587967955E0
1.543111583E1,8.018824768E-1,7.107519836E0,-5.264402618E0,8.881091637E0
1.544104683E1,7.761360168E-1,6.605613556E0,-4.833748169E0,8.222021584E0
1.545097783E1,1.417552185E-1,6.499334564E0,-4.995112610E0,8.198328751E0
1.546090783E1,-1.078656921E0,6.347999268E0,-5.442681885E0,8.431096106E0
1.547083883E1,-2.580783234E0,5.892197113E0,-5.908213806E0,8.734152466E0
1.548076983E1,-4.159699860E0,5.134921875E0,-6.242319031E0,9.090493522E0
1.549069983E1,-5.623655548E0,4.218826904E0,-6.496939545E0,9.572576749E0
1.550063083E1,-6.158044281E0,3.132086792E0,-7.109765167E0,9.913638977E0
1.551056183E1,-5.427563324E0,2.746638336E0,-7.965236206E0,1.002234771E1
1.552049283E1,-2.414329376E0,4.138144684E0,-8.231532440E0,9.524250841E0
1.553042283E1,1.719474335E0,7.500003662E0,-7.961643677E0,1.107223631E1
1.554035383E1,5.783373413E0,1.083162552E1,-8.004005585E0,1.465727208E1
1.555028483E1,1.001342697E1,1.248329086E1,-7.343878326E0,1.760777724E1
1.556021483E1,1.373199417E1,1.241997253E1,-4.938679962E0,1.916282707E1
1.557014583E1,1.704595276E1,1.173484726E1,-1.871558075E0,2.077916926E1
1.558007683E1,1.625409943E1,1.101035385E1,5.342390442E-1,1.963947686E1
1.559000783E1,1.307366318E1,9.602232056E0,7.963439941E-1,1.624061862E1
1.559993783E1,1.075199112E1,8.965156860E0,-2.676434326E-1,1.400182072E1
1.560986883E1,8.550818481E0,9.123826904E0,-1.289718018E0,1.257076317E1
1.561979983E1,5.746400299E0,9.530082092E0,-2.702330475E0,1.145190688E1
1.562973083E1,4.395758972E0,1.135912857E1,-4.763993225E0,1.307853701E1
1.563966083E1,4.699627075E0,1.336226303E1,-6.084397430E0,1.541611041E1
1.564959183E1,4.690795441E0,1.335462891E1,-6.725214844E0,1.567093455E1
1.565952283E1,4.447251892E0,1.171778275E1,-6.698121185E0,1.421088700E1
1.566945283E1,4.536765747E0,9.992470551E0,-5.990841980E0,1.250287562E1
1.567938383E1,4.589456177E0,8.619675293E0,-5.510640564E0,1.121289747E1
1.568931483E1,4.459825745E0,7.487729187E0,-5.721851349E0,1.042572381E1
1.569924583E1,4.327201538E0,6.668782196E0,-6.010002136E0,9.965814307E0
1.570917583E1,4.136049042E0,5.932164001E0,-5.986800385E0,9.388250650E0
1.571910683E1,4.536466370E0,5.269641724E0,-5.486690369E0,8.857337197E0
1.572903783E1,5.029091949E0,4.662803650E0,-4.930896149E0,8.446729577E0
1.573896783E1,5.115462341E0,4.038751373E0,-4.718787231E0,8.046516051E0
1.574889883E1,5.165158997E0,3.898642731E0,-4.585414581E0,7.931223707E0
1.575882983E1,5.132526855E0,3.966751099E0,-4.584217072E0,7.943109741E0
1.576876083E1,4.997657318E0,4.133055267E0,-4.790488129E0,8.062722929E0
1.577869083E1,4.813091125E0,4.631518707E0,-4.980293427E0,8.331874599E0
1.578862183E1,4.732558594E0,5.359754333E0,-4.918172607E0,8.678277430E0
1.579855283E1,4.863236847E0,5.999673615E0,-4.574187927E0,8.976098891E0
1.580848283E1,5.291047211E0,6.517446899E0,-4.161496124E0,9.369650189E0
1.581841383E1,5.985004120E0,7.010222168E0,-3.776047668E0,9.961025306E0
1.582834483E1,6.781647491E0,7.422913971E0,-3.451372833E0,1.063025724E1
1.583827583E1,7.536228333E0,7.658524017E0,-3.151696014E0,1.119736198E1
1.584820583E1,8.105793915E0,7.636669464E0,-2.862198029E0,1.149846916E1
1.585813683E1,8.500672760E0,7.336393890E0,-2.721640320E0,1.155384952E1
1.586806783E1,8.857979736E0,7.009024658E0,-2.798131256E0,1.163700005E1
1.587799883E1,9.184151459E0,6.924001465E0,-2.902464294E0,1.186232411E1
1.588792883E1,9.211394806E0,7.011120300E0,-3.062182159E0,1.197424577E1
1.589785983E1,8.799900513E0,7.284152527E0,-3.190914459E0,1.186082047E1
1.590779083E1,8.178842010E0,7.651338959E0,-3.203188934E0,1.164889968E1
1.591772083E1,7.586972809E0,7.838000793E0,-3.300336914E0,1.139686960E1
1.592765183E1,7.211403809E0,7.751480713E0,-3.355272675E0,1.110619885E1
1.593758283E1,7.248975677E0,7.465126190E0,-3.597019958E0,1.100973705E1
1.594751383E1,7.512278137E0,7.109016724E0,-4.205953674E0,1.116523568E1
1.595744383E1,7.593708801E0,7.135811005E0,-4.877756653E0,1.150550833E1
1.596737483E1,7.943231964E0,7.587571564E0,-4.527035980E0,1.188108712E1
1.597730583E1,7.744445343E0,7.974516907E0,-4.257895660E0,1.190374013E1
1.598723583E1,7.635621643E0,8.152646484E0,-3.720213776E0,1.177320488E1
1.599716683E1,6.567891998E0,8.653654633E0,-2.653681641E0,1.118324506E1
1.600709783E1,5.759273529E0,9.033863983E0,-1.147364044E0,1.077480275E1
1.601702883E1,4.708309021E0,8.898994446E0,-4.775070190E-2,1.006789730E1
1.602695883E1,2.999163208E0,8.703500977E0,6.008505249E-1,9.225341758E0
1.603688983E1,1.446142731E0,9.197324066E0,1.824705505E-1,9.312110087E0
1.604682083E1,8.701405334E-1,1.030726593E1,-9.886940002E-1,1.039107267E1
1.605675083E1,-1.091230774E-1,1.158545792E1,-2.191742249E0,1.179145780E1
1.606668183E1,-1.103205872E0,1.196342194E1,-2.716101837E0,1.231737540E1
1.607661283E1,-1.352437592E0,1.111543533E1,-2.866988068E0,1.155861630E1
1.608654383E1,-1.333726501E0,9.785451050E0,-3.103196869E0,1.035199060E1
1.609647383E1,-9.383985901E-1,8.640332336E0,-3.249293060E0,9.278676640E0
1.610640483E1,-1.592687988E-1,7.946525116E0,-3.191812592E0,8.565062498E0
1.611633583E1,1.191522217E-1,7.505542145E0,-3.300486603E0,8.200034875E0
1.612626683E1,3.870950317E-1,7.562723236E0,-3.224594421E0,8.230591382E0
1.613619683E1,3.586541748E-1,8.058641968E0,-3.404071198E0,8.755457949E0
1.614612783E1,6.033952332E-1,8.928782501E0,-3.507955170E0,9.612127352E0
1.615605883E1,6.716532898E-1,9.891280975E0,-3.824995880E0,1.062634231E1
1.616598817E1,1.576222229E0,1.071801178E1,-3.908073120E0,1.151665266E1
1.617591917E1,1.856289825E0,1.112396759E1,-3.576662292E0,1.183135580E1
1.618585017E1,2.298170929E0,1.105930206E1,-2.808759155E0,1.163953950E1
1.619578117E1,2.867137756E0,1.058568695E1,-2.548151093E0,1.125923271E1
1.620571117E1,3.004701691E0,9.864337006E0,-2.518213348E0,1.061483751E1
1.621564217E1,2.954855347E0,9.238937531E0,-2.316582642E0,9.972747462E0
1.622557317E1,2.776576080E0,8.686735840E0,-2.279160461E0,9.400176950E0
1.623550317E1,2.646945648E0,8.175997925E0,-2.330204315E0,8.904106664E0
1.624543417E1,2.543510742E0,7.745792542E0,-2.485132141E0,8.523064634E0
1.625536517E1,2.446362762E0,7.548802185E0,-2.678230591E0,8.375083539E0
1.626529617E1,2.501897278E0,7.630232849E0,-2.785557404E0,8.499368998E0
1.627522617E1,2.814896393E0,7.965086517E0,-3.071911926E0,8.989042653E0
1.628515717E1,3.093616791E0,8.371790771E0,-3.359913025E0,9.536580158E0
1.629508817E1,3.047662354E0,8.600365448E0,-3.460354156E0,9.758513337E0
1.630501817E1,3.158432007E0,9.216633911E0,-3.511098633E0,1.035615020E1
1.631494917E1,3.190914459E0,9.763147430E0,-3.587888947E0,1.087997840E1
1.632488017E1,3.009491730E0,9.851014709E0,-3.287463684E0,1.081235168E1
1.633481117E1,3.081042938E0,9.762997742E0,-3.495980072E0,1.081807872E1
1.634474117E1,3.392994232E0,9.558223572E0,-3.216660919E0,1.064043961E1
1.635467217E1,3.528761902E0,9.382039948E0,-2.921175385E0,1.044069441E1
1.636460317E1,3.425326996E0,9.104067993E0,-2.744093628E0,1.010677836E1
1.637453317E1,3.171155548E0,8.742270355E0,-2.715802460E0,9.688090703E0
1.638446417E1,2.762655029E0,8.315058746E0,-2.920426941E0,9.235873445E0
1.639439517E1,2.628983002E0,8.200995941E0,-3.163222046E0,9.174631315E0
1.640432617E1,2.861000519E0,8.974587250E0,-3.575464783E0,1.007534062E1
1.641425617E1,2.224524078E0,8.453520813E0,-4.232897644E0,9.712257409E0
1.642418717E1,1.974843292E0,7.623347168E0,-4.700225830E0,9.171016897E0
1.643411817E1,1.715732117E0,6.991511078E0,-5.141208801E0,8.846298197E0
1.644404917E1,1.513502655E0,6.670877838E0,-5.219795380E0,8.604508424E0
1.645397917E1,1.739382935E0,6.694678345E0,-4.794978790E0,8.416412106E0
1.646391017E1,2.351460114E0,7.356452179E0,-3.971241760E0,8.684325791E0
1.647384117E1,3.077001343E0,8.421337738E0,-2.942431183E0,9.436353524E0
1.648377117E1,3.555855560E0,9.769134979E0,-1.875899048E0,1.056404772E1
1.649370217E1,3.896996155E0,1.075423645E1,-9.831555176E-1,1.148071319E1
1.650363317E1,4.574038239E0,1.093865295E1,-4.465214539E-1,1.186487824E1
1.651356417E1,5.032983856E0,1.051458481E1,-2.818638611E-1,1.166048316E1
1.652349417E1,5.094356232E0,1.032927017E1,-1.880090332E-1,1.151875146E1
1.653342517E1,4.947212219E0,1.042043060E1,-2.362088013E-1,1.153759409E1
1.654335617E1,4.715344391E0,1.029798523E1,-5.313949585E-1,1.133866628E1
1.655328617E1,4.612059174E0,9.710007935E0,-9.196875000E-1,1.078893734E1
1.656321717E1,4.027075653E0,8.752748566E0,-9.919871521E-1,9.685658691E0
1.657314817E1,2.993924103E0,8.067623291E0,-1.043929138E0,8.668328279E0
1.658307917E1,2.010169830E0,7.926317139E0,-1.480122070E0,8.310117176E0
1.659300917E1,1.431622925E0,8.157286835E0,-1.799408112E0,8.475183907E0
1.660294017E1,1.625320129E0,8.646170197E0,-1.241667938E0,8.884799596E0
1.661287117E1,1.523980865E0,9.610165558E0,-4.813989258E-1,9.742152978E0
1.662280117E1,1.179547119E0,1.100421661E1,2.293231201E-1,1.106962979E1
1.663273217E1,2.142195282E0,1.255244705E1,3.884422302E-1,1.273985145E1
1.664266317E1,3.444038086E0,1.364562378E1,-2.065704346E-2,1.407355227E1
1.665259417E1,4.370611267E0,1.405801620E1,-1.823208618E-1,1.472288366E1
